File: CRYSTAL-IR-RAMAN/IR.log.csv
E(cm-1),I
0.01,6.18456e-182
0.810152,1.61506e-180
1.6103,4.16395e-179
2.41046,1.05989e-177
3.21061,2.66353e-176
4.01076,6.60834e-175
4.81091,1.6187e-173
5.61106,3.91452e-172
6.41122,9.34609e-171
7.21137,2.20303e-169
8.01152,5.12683e-168
8.81167,1.17792e-166
9.61182,2.67193e-165
10.412,5.98371e-164
11.2121,1.32299e-162
12.0123,2.88788e-161
12.8124,6.2236e-160
13.6126,1.32417e-158
14.4127,2.78153e-157
15.2129,5.7685e-156
16.013,1.18109e-154
16.8132,2.38747e-153
17.6133,4.76469e-152
18.4135,9.38793e-151
19.2136,1.82618e-149
20.0138,3.50717e-148
20.814,6.6498e-147
21.6141,1.2448e-145
22.4143,2.30054e-144
23.2144,4.19757e-143
24.0146,7.56145e-142
24.8147,1.34478e-140
25.6149,2.36122e-139
26.415,4.09319e-138
27.2152,7.00527e-137
28.0153,1.18366e-135
28.8155,1.97455e-134
29.6156,3.25198e-133
30.4158,5.2877e-132
31.2159,8.48837e-131
32.0161,1.34531e-129
32.8162,2.10502e-128
33.6164,3.25186e-127
34.4165,4.95958e-126
35.2167,7.46787e-125
36.0168,1.11017e-123
36.817,1.62937e-122
37.6171,2.36095e-121
38.4173,3.3775e-120
39.2174,4.77027e-119
40.0176,6.65164e-118
40.8178,9.157e-117
41.6179,1.24456e-115
42.4181,1.67001e-114
43.2182,2.21239e-113
44.0184,2.89362e-112
44.8185,3.73647e-111
45.6187,4.76342e-110
46.4188,5.99538e-109
47.219,7.44994e-108
48.0191,9.13961e-107
48.8193,1.10698e-105
49.6194,1.32372e-104
50.4196,1.56274e-103
51.2197,1.82145e-102
52.0199,2.09598e-101
52.82,2.3812e-100
53.6202,2.67081e-99
54.4203,2.95753e-98
55.2205,3.23336e-97
56.0206,3.48995e-96
56.8208,3.71896e-95
57.6209,3.91259e-94
58.4211,4.06392e-93
59.2213,4.1674e-92
60.0214,4.21914e-91
60.8216,4.21717e-90
61.6217,4.16158e-89
62.4219,4.05446e-88
63.222,3.89985e-87
64.0222,3.70341e-86
64.8223,3.47211e-85
65.6225,3.21385e-84
66.4226,2.93694e-83
67.2228,2.64975e-82
68.0229,2.36022e-81
68.8231,2.07558e-80
69.6232,1.80204e-79
70.4234,1.54465e-78
71.2235,1.30717e-77
72.0237,1.09213e-76
72.8238,9.0086e-76
73.624,7.33631e-75
74.4241,5.89844e-74
75.2243,4.68204e-73
76.0244,3.66921e-72
76.8246,2.83889e-71
77.6247,2.16852e-70
78.4249,1.63538e-69
79.2251,1.21762e-68
80.0252,8.95039e-68
80.8254,6.4955e-67
81.6255,4.65396e-66
82.4257,3.29208e-65
83.2258,2.2991e-64
84.026,1.5852e-63
84.8261,1.07907e-62
85.6263,7.25194e-62
86.4264,4.81169e-61
87.2266,3.15195e-60
88.0267,2.03845e-59
88.8269,1.30155e-58
89.627,8.20463e-58
90.4272,5.10618e-57
91.2273,3.13742e-56
92.0275,1.90322e-55
92.8276,1.13984e-54
93.6278,6.73964e-54
94.4279,3.93431e-53
95.2281,2.26746e-52
96.0282,1.29018e-51
96.8284,7.24768e-51
97.6285,4.01964e-50
98.4287,2.20097e-49
99.2289,1.18982e-48
100.029,6.35015e-48
100.829,3.34601e-47
101.629,1.74065e-46
102.429,8.93988e-46
103.23,4.53307e-45
104.03,2.2693e-44
104.83,1.12158e-43
105.63,5.47277e-43
106.43,2.63647e-42
107.23,1.25394e-41
108.031,5.88805e-41
108.831,2.72963e-40
109.631,1.24933e-39
110.431,5.6453e-39
111.231,2.51847e-38
112.031,1.10924e-37
112.831,4.82339e-37
113.632,2.07071e-36
114.432,8.77655e-36
115.232,3.67255e-35
116.032,1.51723e-34
116.832,6.18832e-34
117.632,2.49192e-33
118.433,9.9068e-33
119.233,3.88841e-32
120.033,1.50678e-31
120.833,5.76456e-31
121.633,2.17732e-30
122.433,8.11926e-30
123.233,2.98916e-29
124.034,1.08648e-28
124.834,3.89882e-28
125.634,1.38128e-27
126.434,4.83139e-27
127.234,1.6684e-26
128.034,5.68809e-26
128.834,1.91457e-25
129.635,6.36234e-25
130.435,2.08738e-24
131.235,6.76119e-24
132.035,2.16214e-23
132.835,6.82629e-23
133.635,2.12777e-22
134.436,6.5479e-22
135.236,1.98939e-21
136.036,5.96726e-21
136.836,1.76714e-20
137.636,5.16659e-20
138.436,1.49134e-19
139.236,4.24999e-19
140.037,1.19575e-18
140.837,3.32146e-18
141.637,9.10871e-18
142.437,2.46618e-17
143.237,6.5922e-17
144.037,1.7397e-16
144.838,4.53273e-16
145.638,1.16596e-15
146.438,2.96104e-15
147.238,7.42413e-15
148.038,1.83774e-14
148.838,4.49121e-14
149.638,1.08363e-13
150.439,2.5813e-13
151.239,6.07062e-13
152.039,1.40951e-12
152.839,3.23103e-12
153.639,7.31228e-12
154.439,1.63382e-11
155.239,3.60408e-11
156.04,7.84916e-11
156.84,1.68768e-10
157.64,3.5826e-10
158.44,7.50833e-10
159.24,1.55356e-09
160.04,3.1736e-09
160.841,6.4005e-09
161.641,1.27443e-08
162.441,2.50528e-08
163.241,4.86222e-08
164.041,9.3165e-08
164.841,1.76242e-07
165.641,3.29159e-07
166.442,6.06933e-07
167.242,1.10488e-06
168.042,1.98576e-06
168.842,3.52354e-06
169.642,6.17262e-06
170.442,1.06758e-05
171.243,1.82292e-05
172.043,3.07308e-05
172.843,5.1147e-05
173.643,8.40438e-05
174.443,0.000136342
175.243,0.00021837
176.043,0.000345298
176.844,0.000539058
177.644,0.000830835
178.444,0.00126425
179.244,0.00189929
180.044,0.002817
180.844,0.00412499
181.645,0.00596345
182.445,0.00851159
183.245,0.011994
184.045,0.0166861
184.845,0.0229184
185.645,0.031078
186.445,0.0416064
187.246,0.0549929
188.046,0.0717617
188.846,0.0924522
189.646,0.117593
190.446,0.147667
191.246,0.183073
192.046,0.224081
192.847,0.270784
193.647,0.323059
194.447,0.380521
195.247,0.442501
196.047,0.50803
196.847,0.575842
197.648,0.6444
198.448,0.711946
199.248,0.776565
200.048,0.836271
200.848,0.88911
201.648,0.93326
202.448,0.967139
203.249,0.989496
204.049,0.999489
204.849,0.996738
205.649,0.981347
206.449,0.953901
207.249,0.915426
208.05,0.867324
208.85,0.811296
209.65,0.749231
210.45,0.68311
211.25,0.614901
212.05,0.54646
212.85,0.479458
213.651,0.415319
214.451,0.355182
215.251,0.299889
216.051,0.249981
216.851,0.205728
217.651,0.167155
218.452,0.134086
219.252,0.106191
220.052,0.0830291
220.852,0.0640931
221.652,0.0488463
222.452,0.0367528
223.252,0.0273016
224.053,0.0200228
224.853,0.0144978
225.653,0.0103637
226.453,0.00731425
227.253,0.00509639
228.053,0.00350586
228.853,0.00238103
229.654,0.00159652
230.454,0.00105687
231.254,0.000690732
232.054,0.000445693
232.854,0.000283923
233.654,0.000178568
234.455,0.000110878
235.255,6.79718e-05
236.055,4.11386e-05
236.855,2.45816e-05
237.655,1.45013e-05
238.455,8.44589e-06
239.255,4.85648e-06
240.056,2.757e-06
240.856,1.54522e-06
241.656,8.55036e-07
242.456,4.67107e-07
243.256,2.51934e-07
244.056,1.34152e-07
244.857,7.05254e-08
245.657,3.66044e-08
246.457,1.87569e-08
247.257,9.48911e-09
248.057,4.73947e-09
248.857,2.33708e-09
249.657,1.13777e-09
250.458,5.46861e-10
251.258,2.595e-10
252.058,1.21573e-10
252.858,5.62308e-11
253.658,2.56774e-11
254.458,1.15762e-11
255.258,5.15254e-12
256.059,2.26421e-12
256.859,9.82327e-13
257.659,4.20795e-13
258.459,1.78052e-13
259.259,7.4619e-14
260.059,3.14804e-14
260.86,1.46365e-14
261.66,1.04273e-14
262.46,1.5315e-14
263.26,3.31322e-14
264.06,7.78358e-14
264.86,1.83557e-13
265.66,4.28531e-13
266.461,9.88152e-13
267.261,2.24975e-12
268.061,5.05696e-12
268.861,1.12224e-11
269.661,2.45877e-11
270.461,5.31853e-11
271.262,1.1358e-10
272.062,2.39471e-10
272.862,4.98475e-10
273.662,1.0244e-09
274.462,2.07845e-09
275.262,4.16337e-09
276.062,8.23362e-09
276.863,1.60759e-08
277.663,3.09883e-08
278.463,5.89739e-08
279.263,1.10805e-07
280.063,2.05542e-07
280.863,3.76426e-07
281.664,6.80608e-07
282.464,1.21494e-06
283.264,2.14116e-06
284.064,3.72549e-06
284.864,6.39966e-06
285.664,1.08535e-05
286.464,1.81727e-05
287.265,3.00407e-05
288.065,4.90274e-05
288.865,7.89963e-05
289.665,0.000125665
290.465,0.00019736
291.265,0.000306016
292.065,0.000468455
292.866,0.000707995
293.666,0.00105641
294.466,0.00155622
295.266,0.00226335
296.066,0.0032499
296.866,0.00460709
297.667,0.00644796
298.467,0.00890958
299.267,0.0121543
300.067,0.0163698
300.867,0.0217668
301.667,0.028575
302.467,0.0370353
303.268,0.0473897
304.068,0.0598675
304.868,0.0746685
305.668,0.0919439
306.468,0.111776
307.268,0.134156
308.069,0.158969
308.869,0.185974
309.669,0.214799
310.469,0.244935
311.269,0.275746
312.069,0.306482
312.869,0.336311
313.67,0.364347
314.47,0.389698
315.27,0.41151
316.07,0.429014
316.87,0.441572
317.67,0.448715
318.471,0.450172
319.271,0.445887
320.071,0.436024
320.871,0.420955
321.671,0.401235
322.471,0.377573
323.271,0.350786
324.072,0.321753
324.872,0.291368
325.672,0.260496
326.472,0.229931
327.272,0.20037
328.072,0.172388
328.872,0.146427
329.673,0.122793
330.473,0.101664
331.273,0.0830992
332.073,0.0670604
332.873,0.0534287
333.673,0.0420264
334.474,0.0326368
335.274,0.0250226
336.074,0.0189408
336.874,0.0141547
337.674,0.0104434
338.474,0.00760717
339.274,0.0054707
340.075,0.0038842
340.875,0.00272269
341.675,0.00188424
342.475,0.00128739
343.275,0.00086841
344.075,0.000578333
344.876,0.000380251
345.676,0.000246832
346.476,0.000158187
347.276,0.000100088
348.076,6.25213e-05
348.876,3.8558e-05
349.676,2.34769e-05
350.477,1.41125e-05
351.277,8.37546e-06
352.077,4.90739e-06
352.877,2.83878e-06
353.677,1.62126e-06
354.477,9.14139e-07
355.278,5.08876e-07
356.078,2.79677e-07
356.878,1.51762e-07
357.678,8.13209e-08
358.478,4.3059e-08
359.278,2.25902e-08
360.078,1.18702e-08
360.879,6.50791e-09
361.679,4.22564e-09
362.479,4.02843e-09
363.279,5.83005e-09
364.079,1.04206e-08
364.879,1.97653e-08
365.679,3.77282e-08
366.48,7.14412e-08
367.28,1.33716e-07
368.08,2.47163e-07
368.88,4.51078e-07
369.68,8.1277e-07
370.48,1.44585e-06
371.281,2.53934e-06
372.081,4.40307e-06
372.881,7.53754e-06
373.681,1.27392e-05
374.481,2.12566e-05
375.281,3.50175e-05
376.081,5.69528e-05
376.882,9.145e-05
377.682,0.000144974
378.482,0.000226902
379.282,0.000350609
380.082,0.000534869
380.882,0.000805583
381.683,0.00119788
382.483,0.00175855
383.283,0.00254879
384.083,0.00364714
384.883,0.00515241
385.683,0.00718633
386.483,0.00989561
387.284,0.0134529
388.084,0.0180564
388.884,0.0239267
389.684,0.0313022
390.484,0.0404301
391.284,0.0515553
392.084,0.0649055
392.885,0.0806731
393.685,0.0989953
394.485,0.119933
395.285,0.143451
396.085,0.169397
396.885,0.197491
397.686,0.227315
398.486,0.258314
399.286,0.289805
400.086,0.320998
400.886,0.351026
401.686,0.378978
402.486,0.40395
403.287,0.42509
404.087,0.441644
404.887,0.453005
405.687,0.458747
406.487,0.45865
407.287,0.452719
408.088,0.44118
408.888,0.424464
409.688,0.403186
410.488,0.378101
411.288,0.350066
412.088,0.319986
412.888,0.288769
413.689,0.257282
414.489,0.226312
415.289,0.196537
416.089,0.168508
416.889,0.142638
417.689,0.119203
418.49,0.0983513
419.29,0.0801146
420.09,0.064429
420.89,0.0511553
421.69,0.0400995
422.49,0.0310331
423.29,0.0237111
424.091,0.0178861
424.891,0.0133205
425.691,0.00979405
426.491,0.00710958
427.291,0.00509524
428.091,0.00360515
428.891,0.00251838
429.692,0.00173684
430.492,0.00118259
431.292,0.000794969
432.092,0.000527599
432.892,0.000345698
433.692,0.000223629
434.493,0.000142823
435.293,9.00553e-05
436.093,5.60606e-05
436.893,3.44544e-05
437.693,2.0906e-05
438.493,1.25238e-05
439.293,7.40698e-06
440.094,4.32498e-06
440.894,2.49325e-06
441.694,1.41902e-06
442.494,7.97346e-07
443.294,4.42329e-07
444.094,2.42261e-07
444.895,1.30997e-07
445.695,6.99319e-08
446.495,3.68579e-08
447.295,1.91789e-08
448.095,9.85271e-09
448.895,4.9972e-09
449.695,2.50229e-09
450.496,1.23705e-09
451.296,6.03773e-10
452.096,2.90938e-10
452.896,1.3841e-10
453.696,6.50087e-11
454.496,3.0145e-11
455.297,1.38006e-11
456.097,6.23762e-12
456.897,2.78342e-12
457.697,1.22625e-12
458.497,5.33356e-13
459.297,2.29031e-13
460.097,9.70979e-14
460.898,4.06411e-14
461.698,1.67942e-14
462.498,6.85159e-15
463.298,2.75971e-15
464.098,1.09742e-15
464.898,4.30848e-16
465.698,1.66998e-16
466.499,6.39057e-17
467.299,2.41438e-17
468.099,9.00557e-18
468.899,3.31631e-18
469.699,1.2057e-18
470.499,4.32773e-19
471.3,1.53363e-19
472.1,5.36563e-20
472.9,1.85336e-20
473.7,6.32029e-21
474.5,2.12791e-21
475.3,7.07309e-22
476.1,2.32115e-22
476.901,7.52033e-23
477.701,2.40552e-23
478.501,7.59662e-24
479.301,2.36848e-24
480.101,7.29054e-25
480.901,2.21558e-25
481.702,6.64744e-26
482.502,1.96906e-26
483.302,5.75844e-27
484.102,1.6626e-27
484.902,4.73926e-28
485.702,1.33374e-28
486.502,3.70572e-29
487.303,1.01651e-29
488.103,2.7529e-30
488.903,7.36049e-31
489.703,1.94296e-31
490.503,5.06358e-32
491.303,1.30284e-32
492.103,3.30952e-33
492.904,8.29996e-34
493.704,2.05507e-34
494.504,5.02361e-35
495.304,1.2124e-35
496.104,2.88876e-36
496.904,6.79545e-37
497.705,1.5782e-37
498.505,3.61866e-38
499.305,8.19163e-39
500.105,1.83076e-39
500.905,4.03955e-40
501.705,8.7998e-41
502.505,1.89257e-41
503.306,4.01855e-42
504.106,8.42414e-43
504.906,1.7435e-43
505.706,3.56251e-44
506.506,7.18669e-45
507.306,1.43133e-45
508.107,2.81444e-46
508.907,5.46364e-47
509.707,1.04716e-47
510.507,1.98143e-48
511.307,3.70157e-49
512.107,6.82702e-50
512.907,1.24313e-50
513.708,2.2348e-51
514.508,3.96645e-52
515.308,6.9503e-53
516.108,1.20239e-53
516.908,2.05363e-54
517.708,3.46291e-55
518.509,5.76498e-56
519.309,9.47532e-57
520.109,1.53755e-57
520.909,2.46322e-58
521.709,3.89597e-59
522.509,6.08369e-60
523.309,9.37902e-61
524.11,1.42754e-61
524.91,2.14514e-62
525.71,3.18246e-63
526.51,4.66132e-64
527.31,6.74053e-65
528.11,9.62317e-66
528.91,1.35638e-66
529.711,1.88748e-67
530.511,2.59313e-68
531.311,3.51725e-69
532.111,4.71001e-70
532.911,6.22701e-71
533.711,8.12786e-72
534.512,1.0474e-72
535.312,1.33256e-73
536.112,1.67378e-74
536.912,2.07564e-75
537.712,2.54122e-76
538.512,3.07165e-77
539.312,3.66557e-78
540.113,4.31866e-79
540.913,5.02337e-80
541.713,5.76874e-81
542.513,6.54042e-82
543.313,7.32098e-83
544.113,8.09043e-84
544.914,8.827e-85
545.714,9.50809e-86
546.514,1.01114e-86
547.314,1.06162e-87
548.114,1.10044e-88
548.914,1.12617e-89
549.714,1.13783e-90
550.515,1.13499e-91
551.315,1.11775e-92
552.115,1.08677e-93
552.915,1.0432e-94
553.715,9.88635e-96
554.515,9.25005e-97
555.316,8.54459e-98
556.116,7.79251e-99
556.916,7.01621e-100
557.716,6.23687e-101
558.516,5.47356e-102
559.316,4.74254e-103
560.116,4.05688e-104
560.917,3.42619e-105
561.717,2.85674e-106
562.517,2.35162e-107
563.317,1.91119e-108
564.117,1.53349e-109
564.917,1.21477e-110
565.717,9.50051e-112
566.518,7.33566e-113
567.318,5.59204e-114
568.118,4.20862e-115
568.918,3.12715e-116
569.718,2.29402e-117
570.518,1.66144e-118
571.319,1.18798e-119
572.119,8.38636e-121
572.919,5.8449e-122
573.719,4.02179e-123
574.519,2.73213e-124
575.319,1.8324e-125
576.119,1.21333e-126
576.92,7.93191e-128
577.72,5.11935e-129
578.52,3.26205e-130
579.32,2.05213e-131
580.12,1.27456e-132
580.92,7.81541e-134
581.721,4.73133e-135
582.521,2.82783e-136
583.321,1.66864e-137
584.121,9.72101e-139
584.921,5.59112e-140
585.721,3.17486e-141
586.521,1.77988e-142
587.322,9.8513e-144
588.122,5.38315e-145
588.922,2.90414e-146
589.722,1.54682e-147
590.522,8.1339e-149
591.322,4.22277e-150
592.123,2.16439e-151
592.923,1.09524e-152
593.723,5.47175e-154
594.523,2.69886e-155
595.323,1.31424e-156
596.123,6.31838e-158
596.923,2.999e-159
597.724,1.40536e-160
598.524,6.50182e-162
599.324,2.96977e-163
600.124,1.33921e-164
600.924,5.96232e-166
601.724,2.62071e-167
602.524,1.13727e-168
603.325,4.87243e-170
604.125,2.06095e-171
604.925,8.6065e-173
605.725,3.54834e-174
606.525,1.44432e-175
607.325,5.80418e-177
608.126,2.3028e-178
608.926,9.02009e-180
609.726,3.48823e-181
610.526,1.33179e-182
611.326,5.02006e-184
612.126,1.86818e-185
612.926,6.86386e-187
613.727,2.48976e-188
614.527,8.91628e-190
615.327,3.15246e-191
616.127,1.10041e-192
616.927,3.79227e-194
617.727,1.29027e-195
618.528,4.33414e-197
619.328,1.43735e-198
620.128,4.70613e-200
620.928,1.52125e-201
621.728,4.85489e-203
622.528,1.52966e-204
623.328,4.75829e-206
624.129,1.46132e-207
624.929,4.43076e-209
625.729,1.32633e-210
626.529,3.91977e-212
627.329,1.1437e-213
628.129,3.29458e-215
628.929,9.36974e-217
629.73,2.63084e-218
630.53,7.29289e-220
631.33,1.99592e-221
632.13,5.39296e-223
632.93,1.43863e-224
633.73,3.78888e-226
634.531,9.85169e-228
635.331,2.529e-229
636.131,6.40955e-231
636.931,1.60378e-232
637.731,3.96187e-234
638.531,9.66262e-236
639.331,2.32664e-237
640.132,5.53097e-239
640.932,1.29811e-240
641.732,3.0079e-242
642.532,6.88101e-244
643.332,1.5541e-245
644.132,3.46535e-247
644.933,7.62875e-249
645.733,1.65805e-250
646.533,3.5578e-252
647.333,7.53711e-254
648.133,1.5764e-255
648.933,3.25512e-257
649.733,6.636e-259
650.534,1.33563e-260
651.334,2.65401e-262
652.134,5.20665e-264
652.934,1.00845e-265
653.734,1.92836e-267
654.534,3.6405e-269
655.335,6.78536e-271
656.135,1.2486e-272
656.935,2.26837e-274
657.735,4.06857e-276
658.535,7.2046e-278
659.335,1.25955e-279
660.135,2.17401e-281
660.936,3.70464e-283
661.736,6.2326e-285
662.536,1.03522e-286
663.336,1.69759e-288
664.136,2.74836e-290
664.936,4.39291e-292
665.736,6.93218e-294
666.537,1.08001e-295
667.337,1.6612e-297
668.137,2.52265e-299
668.937,3.78208e-301
669.737,5.59813e-303
670.537,8.18077e-305
671.338,1.18028e-306
672.138,1.68118e-308
672.938,2.36419e-310
673.738,3.28238e-312
674.538,4.4992e-314
675.338,6.088632e-316
676.138,8.134737e-318
676.939,1.073e-319
677.739,1.4e-321
678.539,2e-323
679.339,0.0
680.139,0.0
680.939,0.0
681.74,0.0
682.54,0.0
683.34,0.0
684.14,0.0
684.94,0.0
685.74,0.0
686.54,0.0
687.341,0.0
688.141,0.0
688.941,0.0
689.741,0.0
690.541,0.0
691.341,0.0
692.142,0.0
692.942,0.0
693.742,0.0
694.542,0.0
695.342,0.0
696.142,0.0
696.942,0.0
697.743,0.0
698.543,0.0
699.343,0.0
700.143,0.0
700.943,0.0
701.743,0.0
702.543,0.0
703.344,0.0
704.144,0.0
704.944,0.0
705.744,0.0
706.544,0.0
707.344,0.0
708.145,0.0
708.945,0.0
709.745,0.0
710.545,0.0
711.345,0.0
712.145,0.0
712.945,0.0
713.746,0.0
714.546,0.0
715.346,0.0
716.146,0.0
716.946,0.0
717.746,0.0
718.547,0.0
719.347,0.0
720.147,0.0
720.947,0.0
721.747,0.0
722.547,0.0
723.347,0.0
724.148,0.0
724.948,0.0
725.748,0.0
726.548,0.0
727.348,0.0
728.148,0.0
728.948,0.0
729.749,0.0
730.549,0.0
731.349,0.0
732.149,0.0
732.949,0.0
733.749,0.0
734.55,0.0
735.35,0.0
736.15,0.0
736.95,0.0
737.75,0.0
738.55,0.0
739.35,0.0
740.151,0.0
740.951,0.0
741.751,0.0
742.551,0.0
743.351,0.0
744.151,0.0
744.952,0.0
745.752,0.0
746.552,0.0
747.352,0.0
748.152,0.0
748.952,0.0
749.752,0.0
750.553,0.0
751.353,0.0
752.153,0.0
752.953,0.0
753.753,0.0
754.553,0.0
755.354,0.0
756.154,0.0
756.954,0.0
757.754,0.0
758.554,0.0
759.354,0.0
760.154,0.0
760.955,0.0
761.755,0.0
762.555,0.0
763.355,0.0
764.155,0.0
764.955,0.0
765.755,0.0
766.556,0.0
767.356,0.0
768.156,0.0
768.956,0.0
769.756,0.0
770.556,0.0
771.357,0.0
772.157,0.0
772.957,0.0
773.757,0.0
774.557,0.0
775.357,0.0
776.157,0.0
776.958,0.0
777.758,0.0
778.558,0.0
779.358,0.0
780.158,0.0
780.958,0.0
781.759,0.0
782.559,0.0
783.359,0.0
784.159,0.0
784.959,0.0
785.759,0.0
786.559,0.0
787.36,0.0
788.16,0.0
788.96,0.0
789.76,0.0
790.56,0.0
791.36,0.0
792.161,0.0
792.961,0.0
793.761,0.0
794.561,0.0
795.361,0.0
796.161,0.0
796.961,0.0
797.762,0.0
798.562,0.0
799.362,0.0
800.162,0.0
800.962,0.0
801.762,0.0
802.562,0.0
803.363,0.0
804.163,0.0
804.963,0.0
805.763,0.0
806.563,0.0
807.363,0.0
808.164,0.0
808.964,0.0
809.764,0.0
810.564,0.0
811.364,0.0
812.164,0.0
812.964,0.0
813.765,0.0
814.565,0.0
815.365,0.0
816.165,0.0
816.965,0.0
817.765,0.0
818.566,0.0
819.366,0.0
820.166,0.0
820.966,0.0
821.766,0.0
822.566,0.0
823.366,0.0
824.167,0.0
824.967,0.0
825.767,0.0
826.567,0.0
827.367,0.0
828.167,0.0
828.968,0.0
829.768,0.0
830.568,0.0
831.368,0.0
832.168,0.0
832.968,0.0
833.768,0.0
834.569,0.0
835.369,0.0
836.169,0.0
836.969,0.0
837.769,0.0
838.569,0.0
839.369,0.0
840.17,0.0
840.97,0.0
841.77,0.0
842.57,0.0
843.37,0.0
844.17,0.0
844.971,0.0
845.771,0.0
846.571,0.0
847.371,0.0
848.171,0.0
848.971,0.0
849.771,0.0
850.572,0.0
851.372,0.0
852.172,0.0
852.972,0.0
853.772,0.0
854.572,0.0
855.373,0.0
856.173,0.0
856.973,0.0
857.773,0.0
858.573,0.0
859.373,0.0
860.173,0.0
860.974,0.0
861.774,0.0
862.574,0.0
863.374,0.0
864.174,0.0
864.974,0.0
865.774,0.0
866.575,0.0
867.375,0.0
868.175,0.0
868.975,0.0
869.775,0.0
870.575,0.0
871.376,0.0
872.176,0.0
872.976,0.0
873.776,0.0
874.576,0.0
875.376,0.0
876.176,0.0
876.977,0.0
877.777,0.0
878.577,0.0
879.377,0.0
880.177,0.0
880.977,0.0
881.778,0.0
882.578,0.0
883.378,0.0
884.178,0.0
884.978,0.0
885.778,0.0
886.578,0.0
887.379,0.0
888.179,0.0
888.979,0.0
889.779,0.0
890.579,0.0
891.379,0.0
892.18,0.0
892.98,0.0
893.78,0.0
894.58,0.0
895.38,0.0
896.18,0.0
896.98,0.0
897.781,0.0
898.581,0.0
899.381,0.0
900.181,0.0
900.981,0.0
901.781,0.0
902.581,0.0
903.382,0.0
904.182,0.0
904.982,0.0
905.782,0.0
906.582,0.0
907.382,0.0
908.183,0.0
908.983,0.0
909.783,0.0
910.583,0.0
911.383,0.0
912.183,0.0
912.983,0.0
913.784,0.0
914.584,0.0
915.384,0.0
916.184,0.0
916.984,0.0
917.784,0.0
918.585,0.0
919.385,0.0
920.185,0.0
920.985,0.0
921.785,0.0
922.585,0.0
923.385,0.0
924.186,0.0
924.986,0.0
925.786,0.0
926.586,0.0
927.386,0.0
928.186,0.0
928.987,0.0
929.787,0.0
930.587,0.0
931.387,0.0
932.187,0.0
932.987,0.0
933.787,0.0
934.588,0.0
935.388,0.0
936.188,0.0
936.988,0.0
937.788,0.0
938.588,0.0
939.388,0.0
940.189,0.0
940.989,0.0
941.789,0.0
942.589,0.0
943.389,0.0
944.189,0.0
944.99,0.0
945.79,0.0
946.59,0.0
947.39,0.0
948.19,0.0
948.99,0.0
949.79,0.0
950.591,0.0
951.391,0.0
952.191,0.0
952.991,0.0
953.791,0.0
954.591,0.0
955.392,0.0
956.192,0.0
956.992,0.0
957.792,0.0
958.592,0.0
959.392,0.0
960.192,0.0
960.993,0.0
961.793,0.0
962.593,0.0
963.393,0.0
964.193,0.0
964.993,0.0
965.794,0.0
966.594,0.0
967.394,0.0
968.194,0.0
968.994,0.0
969.794,0.0
970.594,0.0
971.395,0.0
972.195,0.0
972.995,0.0
973.795,0.0
974.595,0.0
975.395,0.0
976.195,0.0
976.996,0.0
977.796,0.0
978.596,0.0
979.396,0.0
980.196,0.0
980.996,0.0
981.797,0.0
982.597,0.0
983.397,0.0
984.197,0.0
984.997,0.0
985.797,0.0
986.597,0.0
987.398,0.0
988.198,0.0
988.998,0.0
989.798,0.0
990.598,0.0
991.398,0.0
992.199,0.0
992.999,0.0
993.799,0.0
994.599,0.0
995.399,0.0
996.199,0.0
996.999,0.0
997.8,0.0
998.6,0.0
999.4,0.0
1000.0,0.0