File: CRYSTAL-IR-RAMAN/IR.log-IR.csv
E(cm-1),I
0.01,6.18473e-182
0.590473,6.6032e-181
1.17095,7.00264e-180
1.75142,7.37636e-179
2.33189,7.71783e-178
2.91237,8.02088e-177
3.49284,8.27985e-176
4.07331,8.48976e-175
4.65378,8.64654e-174
5.23426,8.74706e-173
5.81473,8.78933e-172
6.3952,8.77248e-171
6.97568,8.69685e-170
7.55615,8.56397e-169
8.13662,8.37648e-168
8.7171,8.13807e-167
9.29757,7.85335e-166
9.87804,7.52768e-165
10.4585,7.16706e-164
11.039,6.77788e-163
11.6195,6.36678e-162
12.1999,5.94045e-161
12.7804,5.50545e-160
13.3609,5.06802e-159
13.9414,4.63402e-158
14.5218,4.20873e-157
15.1023,3.79679e-156
15.6828,3.40217e-155
16.2632,3.02809e-154
16.8437,2.67704e-153
17.4242,2.35079e-152
18.0047,2.05044e-151
18.5851,1.77645e-150
19.1656,1.52873e-149
19.7461,1.30672e-148
20.3266,1.10946e-147
20.907,9.3564e-147
21.4875,7.83757e-146
22.068,6.52119e-145
22.6485,5.38947e-144
23.2289,4.42423e-143
23.8094,3.60748e-142
24.3899,2.92175e-141
24.9703,2.35047e-140
25.5508,1.87819e-139
26.1313,1.49073e-138
26.7118,1.17525e-137
27.2922,9.20314e-137
27.8727,7.15838e-136
28.4532,5.53053e-135
29.0337,4.24416e-134
29.6141,3.23512e-133
30.1946,2.44941e-132
30.7751,1.84207e-131
31.3555,1.37602e-130
31.936,1.02098e-129
32.5165,7.52458e-129
33.097,5.50834e-128
33.6774,4.00527e-127
34.2579,2.89279e-126
34.8384,2.07527e-125
35.4189,1.47879e-124
35.9993,1.04667e-123
36.5798,7.3585e-123
37.1603,5.13855e-122
37.7408,3.56423e-121
38.3212,2.45563e-120
38.9017,1.68049e-119
39.4822,1.1423e-118
40.0626,7.71254e-118
40.6431,5.17236e-117
41.2236,3.44551e-116
41.8041,2.27977e-115
42.3845,1.49831e-114
42.965,9.78106e-114
43.5455,6.34226e-113
44.126,4.08484e-112
44.7064,2.61324e-111
45.2869,1.66057e-110
45.8674,1.04811e-109
46.4478,6.571e-109
47.0283,4.09194e-108
47.6088,2.53104e-107
48.1893,1.55505e-106
48.7697,9.48989e-106
49.3502,5.75244e-105
49.9307,3.4635e-104
50.5112,2.07135e-103
51.0916,1.23045e-102
51.6721,7.26018e-102
52.2526,4.25505e-101
52.8331,2.47705e-100
53.4135,1.43231e-99
53.994,8.22651e-99
54.5745,4.69317e-98
55.1549,2.65944e-97
55.7354,1.49688e-96
56.3159,8.36867e-96
56.8964,4.64729e-95
57.4768,2.5634e-94
58.0573,1.40445e-93
58.6378,7.64311e-93
59.2183,4.13149e-92
59.7987,2.21828e-91
60.3792,1.18304e-90
60.9597,6.26696e-90
61.5402,3.29752e-89
62.1206,1.72342e-88
62.7011,8.94677e-88
63.2816,4.61335e-87
63.862,2.36287e-86
64.4425,1.20209e-85
65.023,6.07443e-85
65.6035,3.04894e-84
66.1839,1.52007e-83
66.7644,7.52756e-83
67.3449,3.70269e-82
67.9254,1.80906e-81
68.5058,8.77936e-81
69.0863,4.232e-80
69.6668,2.02629e-79
70.2472,9.63676e-79
70.8277,4.55233e-78
71.4082,2.13604e-77
71.9887,9.9554e-77
72.5691,4.60873e-76
73.1496,2.11923e-75
73.7301,9.67935e-75
74.3106,4.39126e-74
74.891,1.97881e-73
75.4715,8.85714e-73
76.052,3.93782e-72
76.6325,1.73897e-71
77.2129,7.62782e-71
77.7934,3.3234e-70
78.3739,1.43826e-69
78.9543,6.18254e-69
79.5348,2.63979e-68
80.1153,1.11955e-67
80.6958,4.71621e-67
81.2762,1.9734e-66
81.8567,8.20183e-66
82.4372,3.38594e-65
83.0177,1.38842e-64
83.5981,5.65505e-64
84.1786,2.28784e-63
84.7591,9.19362e-63
85.3395,3.66962e-62
85.92,1.45489e-61
86.5005,5.72943e-61
87.081,2.24113e-60
87.6614,8.70753e-60
88.2419,3.36044e-59
88.8224,1.28816e-58
89.4029,4.90478e-58
89.9833,1.85499e-57
90.5638,6.96845e-57
91.1443,2.60018e-56
91.7248,9.63708e-56
92.3052,3.54781e-55
92.8857,1.29732e-54
93.4662,4.71204e-54
94.0466,1.69998e-53
94.6271,6.09189e-53
95.2076,2.16837e-52
95.7881,7.66633e-52
96.3685,2.69225e-51
96.949,9.39109e-51
97.5295,3.2538e-50
98.11,1.11979e-49
98.6904,3.82789e-49
99.2709,1.29973e-48
99.8514,4.3835e-48
100.432,1.46846e-47
101.012,4.88625e-47
101.593,1.61497e-46
102.173,5.30181e-46
102.754,1.72885e-45
103.334,5.59971e-45
103.915,1.80155e-44
104.495,5.75705e-44
105.076,1.82737e-43
105.656,5.7614e-43
106.237,1.80427e-42
106.817,5.6124e-42
107.398,1.73408e-41
107.978,5.32185e-41
108.558,1.62229e-40
109.139,4.91213e-40
109.719,1.47735e-39
110.3,4.41337e-39
110.88,1.30958e-38
111.461,3.8598e-38
112.041,1.12998e-37
112.622,3.28588e-37
113.202,9.49084e-37
113.783,2.7229e-36
114.363,7.75946e-36
114.944,2.19637e-35
115.524,6.1752e-35
116.105,1.72453e-34
116.685,4.7837e-34
117.266,1.31805e-33
117.846,3.6072e-33
118.427,9.80581e-33
119.007,2.64771e-32
119.587,7.10116e-32
120.168,1.89174e-31
120.748,5.00575e-31
121.329,1.31567e-30
121.909,3.4348e-30
122.49,8.90692e-30
123.07,2.29418e-29
123.651,5.86948e-29
124.231,1.49158e-28
124.812,3.765e-28
125.392,9.43969e-28
125.973,2.35084e-27
126.553,5.81517e-27
127.134,1.42881e-26
127.714,3.48707e-26
128.295,8.45318e-26
128.875,2.03541e-25
129.456,4.86809e-25
130.036,1.15648e-24
130.616,2.72891e-24
131.197,6.3961e-24
131.777,1.48907e-23
132.358,3.44339e-23
132.938,7.90919e-23
133.519,1.80448e-22
134.099,4.08924e-22
134.68,9.20467e-22
135.26,2.05801e-21
135.841,4.57045e-21
136.421,1.00819e-20
137.002,2.20904e-20
137.582,4.80767e-20
138.163,1.0393e-19
138.743,2.23161e-19
139.324,4.7596e-19
139.904,1.00831e-18
140.484,2.12175e-18
141.065,4.43471e-18
141.645,9.20684e-18
142.226,1.89858e-17
142.806,3.88884e-17
143.387,7.91198e-17
143.967,1.59891e-16
144.548,3.20948e-16
145.128,6.39911e-16
145.709,1.2673e-15
146.289,2.49293e-15
146.87,4.87095e-15
147.45,9.45348e-15
148.031,1.8224e-14
148.611,3.48954e-14
149.192,6.6369e-14
149.772,1.25382e-13
150.353,2.35278e-13
150.933,4.3853e-13
151.513,8.11876e-13
152.094,1.49298e-12
152.674,2.72704e-12
153.255,4.94769e-12
153.835,8.91635e-12
154.416,1.59604e-11
154.996,2.83776e-11
155.577,5.01164e-11
156.157,8.79138e-11
156.738,1.53182e-10
157.318,2.65113e-10
157.899,4.55753e-10
158.479,7.78215e-10
159.06,1.31991e-09
159.64,2.22362e-09
160.221,3.72093e-09
160.801,6.18465e-09
161.382,1.02106e-08
161.962,1.67441e-08
162.542,2.72739e-08
163.123,4.41269e-08
163.703,7.09143e-08
164.284,1.13198e-07
164.864,1.79479e-07
165.445,2.8266e-07
166.025,4.42169e-07
166.606,6.87044e-07
167.186,1.06036e-06
167.767,1.62554e-06
168.347,2.47523e-06
168.928,3.74373e-06
169.508,5.6243e-06
170.089,8.39276e-06
170.669,1.24398e-05
171.25,1.83146e-05
171.83,2.67827e-05
172.411,3.89031e-05
172.991,5.6129e-05
173.571,8.04384e-05
174.152,0.000114502
174.732,0.000161896
175.313,0.00022737
175.893,0.000317177
176.474,0.000439486
177.054,0.000604868
177.635,0.000826895
178.215,0.00112283
178.796,0.00151443
179.376,0.00202889
179.957,0.00269986
180.537,0.00356859
181.118,0.00468518
181.698,0.00610983
182.279,0.00791416
182.859,0.0101825
183.44,0.013013
184.02,0.0165186
184.6,0.0208277
185.181,0.0260845
185.761,0.0324488
186.342,0.0400948
186.922,0.0492096
187.503,0.0599909
188.083,0.0726431
188.664,0.0873728
189.244,0.104384
189.825,0.123868
190.405,0.146003
190.986,0.170938
191.566,0.198786
192.147,0.229619
192.727,0.263453
193.308,0.300242
193.888,0.339871
194.468,0.382146
195.049,0.426793
195.629,0.473455
196.21,0.521692
196.79,0.570982
197.371,0.620732
197.951,0.670284
198.532,0.71893
199.112,0.765929
199.693,0.810519
200.273,0.851944
200.854,0.889473
201.434,0.922417
202.015,0.950157
202.595,0.972157
203.176,0.987986
203.756,0.99733
204.337,1.0
204.917,0.995943
205.497,0.98524
206.078,0.968107
206.658,0.944882
207.239,0.916021
207.819,0.882076
208.4,0.843685
208.98,0.801545
209.561,0.756395
210.141,0.708995
210.722,0.660101
211.302,0.610451
211.883,0.560745
212.463,0.511626
213.044,0.463674
213.624,0.417395
214.205,0.373211
214.785,0.331463
215.366,0.292407
215.946,0.256221
216.526,0.223006
217.107,0.192792
217.687,0.165553
218.268,0.141207
218.848,0.119633
219.429,0.100674
220.009,0.0841507
220.59,0.0698668
221.17,0.057618
221.751,0.0471974
222.331,0.0384018
222.912,0.0310354
223.492,0.0249137
224.073,0.0198651
224.653,0.0157332
225.234,0.0123771
225.814,0.00967143
226.395,0.0075065
226.975,0.00578705
227.555,0.00443149
228.136,0.00337067
228.716,0.00254657
229.297,0.00191104
229.877,0.00142448
230.458,0.00105467
231.038,0.000775618
231.619,0.00056657
232.199,0.000411087
232.78,0.000296269
233.36,0.000212086
233.941,0.000150804
234.521,0.000106508
235.102,7.47188e-05
235.682,5.20654e-05
236.263,3.60364e-05
236.843,2.47747e-05
237.424,1.69179e-05
238.004,1.14752e-05
238.584,7.73117e-06
239.165,5.17373e-06
239.745,3.43903e-06
240.326,2.27061e-06
240.906,1.48909e-06
241.487,9.70003e-07
242.067,6.27623e-07
242.648,4.03364e-07
243.228,2.57495e-07
243.809,1.63273e-07
244.389,1.02833e-07
244.97,6.43318e-08
245.55,3.99752e-08
246.131,2.46734e-08
246.711,1.51266e-08
247.292,9.21142e-09
247.872,5.57166e-09
248.452,3.34747e-09
249.033,1.99766e-09
249.613,1.18413e-09
250.194,6.97191e-10
250.774,4.07734e-10
251.355,2.36851e-10
251.935,1.36662e-10
252.516,7.83234e-11
253.096,4.45872e-11
253.677,2.52116e-11
254.257,1.41601e-11
254.838,7.89958e-12
255.418,4.37739e-12
255.999,2.40936e-12
256.579,1.31723e-12
257.16,7.15329e-13
257.74,3.85883e-13
258.321,2.06825e-13
258.901,1.10229e-13
259.481,5.85886e-14
260.062,3.1397e-14
260.642,1.76186e-14
261.223,1.15483e-14
261.803,1.06222e-14
262.384,1.44138e-14
262.964,2.44505e-14
263.545,4.47809e-14
264.125,8.34826e-14
264.706,1.55625e-13
265.286,2.88678e-13
265.867,5.32145e-13
266.447,9.74486e-13
267.028,1.77259e-12
267.608,3.20272e-12
268.189,5.74784e-12
268.769,1.02462e-11
269.35,1.81424e-11
269.93,3.1908e-11
270.51,5.57415e-11
271.091,9.67231e-11
271.671,1.66707e-10
272.252,2.854e-10
272.832,4.85316e-10
273.413,8.19728e-10
273.993,1.37527e-09
274.574,2.29182e-09
275.154,3.79354e-09
275.735,6.2371e-09
276.315,1.01858e-08
276.896,1.65226e-08
277.476,2.66218e-08
278.057,4.26058e-08
278.637,6.77287e-08
279.218,1.06943e-07
279.798,1.67727e-07
280.379,2.61292e-07
280.959,4.04319e-07
281.539,6.21435e-07
282.12,9.48724e-07
282.7,1.43866e-06
283.281,2.16695e-06
283.861,3.242e-06
284.442,4.81782e-06
285.022,7.1115e-06
285.603,1.04267e-05
286.183,1.51846e-05
286.764,2.19651e-05
287.344,3.15601e-05
287.925,4.50417e-05
288.505,6.38507e-05
289.086,8.99063e-05
289.666,0.000125744
290.247,0.000174686
290.827,0.000241047
291.408,0.000330384
291.988,0.000449789
292.568,0.000608237
293.149,0.000816978
293.729,0.00108998
294.31,0.00144446
294.89,0.00190135
295.471,0.00248594
296.051,0.00322846
296.632,0.00416459
297.212,0.00533607
297.793,0.00679118
298.373,0.00858504
298.954,0.0107798
299.534,0.0134448
300.115,0.0166561
300.695,0.0204957
301.276,0.025051
301.856,0.0304132
302.436,0.0366751
303.017,0.0439293
303.597,0.052265
304.178,0.0617648
304.758,0.072501
305.339,0.0845318
305.919,0.0978971
306.5,0.112614
307.08,0.128673
307.661,0.146036
308.241,0.164627
308.822,0.184339
309.402,0.205025
309.983,0.226501
310.563,0.248545
311.144,0.270904
311.724,0.29329
312.305,0.315394
312.885,0.336886
313.465,0.357425
314.046,0.37667
314.626,0.394285
315.207,0.409951
315.787,0.423378
316.368,0.434307
316.948,0.442526
317.529,0.447873
318.109,0.45024
318.69,0.449579
319.27,0.445904
319.851,0.439289
320.431,0.429865
321.012,0.417818
321.592,0.403382
322.173,0.386828
322.753,0.368463
323.334,0.348612
323.914,0.327615
324.494,0.305815
325.075,0.283548
325.655,0.261137
326.236,0.238882
326.816,0.217056
327.397,0.1959
327.977,0.175618
328.558,0.156379
329.138,0.138312
329.719,0.12151
330.299,0.106033
330.88,0.0919058
331.46,0.0791257
332.041,0.0676653
332.621,0.0574761
333.202,0.0484933
333.782,0.0406396
334.363,0.0338291
334.943,0.0279708
335.523,0.0229717
336.104,0.0187393
336.684,0.0151841
337.265,0.0122207
337.845,0.00976961
338.426,0.00775768
339.006,0.0061187
339.587,0.00479358
340.167,0.00373022
340.748,0.00288325
341.328,0.00221362
341.909,0.00168809
342.489,0.00127869
343.07,0.000962066
343.65,0.000718983
344.231,0.000533711
344.811,0.00039352
345.392,0.000288204
345.972,0.000209656
346.552,0.000151491
347.133,0.000108728
347.713,7.7512e-05
348.294,5.4887e-05
348.874,3.86049e-05
349.455,2.69706e-05
350.035,1.87159e-05
350.616,1.29004e-05
351.196,8.83223e-06
351.777,6.00635e-06
352.357,4.05718e-06
352.938,2.72214e-06
353.518,1.81414e-06
354.099,1.20089e-06
354.679,7.89608e-07
355.26,5.15695e-07
355.84,3.34542e-07
356.42,2.1557e-07
357.001,1.37981e-07
357.581,8.7737e-08
358.162,5.5434e-08
358.742,3.48241e-08
359.323,2.17902e-08
359.903,1.36464e-08
360.484,8.66415e-09
361.064,5.75708e-09
361.645,4.27665e-09
362.225,3.88709e-09
362.806,4.49952e-09
363.386,6.2543e-09
363.967,9.54899e-09
364.547,1.51163e-08
365.128,2.41651e-08
365.708,3.86065e-08
366.289,6.14004e-08
366.869,9.70746e-08
367.449,1.52489e-07
368.03,2.37954e-07
368.61,3.68837e-07
369.191,5.6788e-07
369.771,8.68468e-07
370.352,1.31924e-06
370.932,1.99054e-06
371.513,2.98324e-06
372.093,4.44099e-06
372.674,6.56667e-06
373.254,9.64458e-06
373.835,1.407e-05
374.415,2.03882e-05
374.996,2.93453e-05
375.576,4.19536e-05
376.157,5.95764e-05
376.737,8.40334e-05
377.318,0.000117734
377.898,0.000163843
378.478,0.000226478
379.059,0.000310955
379.639,0.000424074
380.22,0.00057446
380.8,0.000772949
381.381,0.00103304
381.961,0.00137136
382.542,0.00180827
383.122,0.00236836
383.703,0.0030811
384.283,0.00398141
384.864,0.00511024
385.444,0.00651506
386.025,0.00825029
386.605,0.0103775
387.186,0.0129655
387.766,0.0160902
388.347,0.0198338
388.927,0.0242842
389.507,0.0295334
390.088,0.0356761
390.668,0.042807
391.249,0.0510182
391.829,0.0603961
392.41,0.0710176
392.99,0.0829462
393.571,0.0962277
394.151,0.110886
394.732,0.126919
395.312,0.144295
395.893,0.162948
396.473,0.182775
397.054,0.203639
397.634,0.225361
398.215,0.247724
398.795,0.270478
399.376,0.293338
399.956,0.315994
400.536,0.338113
401.117,0.35935
401.697,0.379357
402.278,0.397787
402.858,0.414312
403.439,0.428625
404.019,0.440454
404.6,0.449569
405.18,0.455792
405.761,0.458996
406.341,0.459119
406.922,0.456158
407.502,0.450171
408.083,0.44128
408.663,0.429658
409.244,0.415534
409.824,0.399174
410.404,0.380883
410.985,0.360989
411.565,0.339836
412.146,0.317775
412.726,0.295149
413.307,0.272294
413.887,0.249521
414.468,0.227117
415.048,0.205336
415.629,0.184397
416.209,0.164481
416.79,0.145731
417.37,0.128251
417.951,0.11211
418.531,0.0973415
419.112,0.0839512
419.692,0.0719166
420.273,0.0611934
420.853,0.0517193
421.433,0.0434185
422.014,0.0362051
422.594,0.0299874
423.175,0.0246707
423.755,0.0201603
424.336,0.0163638
424.916,0.0131931
425.497,0.0105653
426.077,0.00840407
426.658,0.00664005
427.238,0.00521106
427.819,0.00406214
428.399,0.00314526
428.98,0.00241897
429.56,0.0018479
430.141,0.00140217
430.721,0.00105681
431.302,0.000791158
431.882,0.000588308
432.462,0.000434529
433.043,0.000318792
433.623,0.00023231
434.204,0.000168152
434.784,0.000120896
435.365,8.6336e-05
435.945,6.12416e-05
436.526,4.31493e-05
437.106,3.01978e-05
437.687,2.09918e-05
438.267,1.44943e-05
438.848,9.94072e-06
439.428,6.77192e-06
440.009,4.58226e-06
440.589,3.07978e-06
441.17,2.05605e-06
441.75,1.3634e-06
442.331,8.98013e-07
442.911,5.87512e-07
443.491,3.81789e-07
444.072,2.46436e-07
444.652,1.58e-07
445.233,1.0062e-07
445.813,6.36482e-08
446.394,3.99908e-08
446.974,2.49578e-08
447.555,1.54713e-08
448.135,9.52623e-09
448.716,5.82623e-09
449.296,3.53939e-09
449.877,2.13571e-09
450.457,1.28005e-09
451.038,7.62059e-10
451.618,4.50632e-10
452.199,2.64685e-10
452.779,1.54422e-10
453.36,8.94875e-11
453.94,5.15097e-11
454.52,2.94503e-11
455.101,1.67249e-11
455.681,9.43428e-12
456.262,5.28602e-12
456.842,2.94186e-12
457.423,1.62625e-12
458.003,8.92952e-13
458.584,4.87014e-13
459.164,2.63832e-13
459.745,1.41967e-13
460.325,7.58787e-14
460.906,4.02834e-14
461.486,2.12425e-14
462.067,1.11265e-14
462.647,5.78875e-15
463.228,2.99147e-15
463.808,1.53552e-15
464.388,7.82894e-16
464.969,3.96481e-16
465.549,1.99441e-16
466.13,9.96508e-17
466.71,4.94561e-17
467.291,2.43799e-17
467.871,1.19376e-17
468.452,5.806e-18
469.032,2.80485e-18
469.613,1.34591e-18
470.193,6.41497e-19
470.774,3.03701e-19
471.354,1.42814e-19
471.935,6.67069e-20
472.515,3.09488e-20
473.096,1.42623e-20
473.676,6.52841e-21
474.257,2.96824e-21
474.837,1.34049e-21
475.417,6.01317e-22
475.998,2.67926e-22
476.578,1.18577e-22
477.159,5.21266e-23
477.739,2.2761e-23
478.32,9.8718e-24
478.9,4.2528e-24
479.481,1.81981e-24
480.061,7.73485e-25
480.642,3.2655e-25
481.222,1.36937e-25
481.803,5.70383e-26
482.383,2.35985e-26
482.964,9.69787e-27
483.544,3.9586e-27
484.125,1.60502e-27
484.705,6.46385e-28
485.286,2.58569e-28
485.866,1.02739e-28
486.446,4.05476e-29
487.027,1.58953e-29
487.607,6.18939e-30
488.188,2.39386e-30
488.768,9.19652e-31
489.349,3.50931e-31
489.929,1.33012e-31
490.51,5.00768e-32
491.09,1.87264e-32
491.671,6.95577e-33
492.251,2.56631e-33
492.832,9.40475e-34
493.412,3.4234e-34
493.993,1.23778e-34
494.573,4.44529e-35
495.154,1.58574e-35
495.734,5.61869e-36
496.315,1.97748e-36
496.895,6.91294e-37
497.475,2.40042e-37
498.056,8.27912e-38
498.636,2.83632e-38
499.217,9.65159e-39
499.797,3.26224e-39
500.378,1.09523e-39
500.958,3.65233e-40
501.539,1.20978e-40
502.119,3.98032e-41
502.7,1.30077e-41
503.28,4.22239e-42
503.861,1.36141e-42
504.441,4.36006e-43
505.022,1.38698e-43
505.602,4.38247e-44
506.183,1.37544e-44
506.763,4.28785e-45
507.344,1.32773e-45
507.924,4.08369e-46
508.504,1.24758e-46
509.085,3.78581e-47
509.665,1.1411e-47
510.246,3.41632e-48
510.826,1.01594e-48
511.407,3.0009e-49
511.987,8.80458e-50
512.568,2.56589e-50
513.148,7.42748e-51
513.729,2.13559e-51
514.309,6.09912e-52
514.89,1.73018e-52
515.47,4.87513e-53
516.051,1.36444e-53
516.631,3.79314e-54
517.212,1.04741e-54
517.792,2.87279e-55
518.372,7.82649e-56
518.953,2.11789e-56
519.533,5.69262e-57
520.114,1.51983e-57
520.694,4.03042e-58
521.275,1.06165e-58
521.855,2.77768e-59
522.436,7.21869e-60
523.016,1.86341e-60
523.597,4.77782e-61
524.177,1.21682e-61
524.758,3.07818e-62
525.338,7.73458e-63
525.919,1.93042e-63
526.499,4.78565e-64
527.08,1.17843e-64
527.66,2.8823e-65
528.241,7.00241e-66
528.821,1.68978e-66
529.401,4.05028e-67
529.982,9.64303e-68
530.562,2.28042e-68
531.143,5.35662e-69
531.723,1.2498e-69
532.304,2.89642e-70
532.884,6.6674e-71
533.465,1.52449e-71
534.045,3.46232e-72
534.626,7.81055e-73
535.206,1.75013e-73
535.787,3.89522e-74
536.367,8.61126e-75
536.948,1.89093e-75
537.528,4.12436e-76
538.109,8.93535e-77
538.689,1.92282e-77
539.27,4.10999e-78
539.85,8.72601e-79
540.43,1.84019e-79
541.011,3.85465e-80
541.591,8.0201e-81
542.172,1.65748e-81
542.752,3.40243e-82
543.333,6.9375e-83
543.913,1.40505e-83
544.494,2.82652e-84
545.074,5.6479e-85
545.655,1.12097e-85
546.235,2.20991e-86
546.816,4.32743e-87
547.396,8.417e-88
547.977,1.62614e-88
548.557,3.12056e-89
549.138,5.94812e-90
549.718,1.12616e-90
550.299,2.11785e-91
550.879,3.95605e-92
551.459,7.34011e-93
552.04,1.35275e-93
552.62,2.4763e-94
553.201,4.50261e-95
553.781,8.13202e-96
554.362,1.45883e-96
554.942,2.59948e-97
555.523,4.60087e-98
556.103,8.08848e-99
556.684,1.41243e-99
557.264,2.44986e-100
557.845,4.22073e-101
558.425,7.22284e-102
559.006,1.22773e-102
559.586,2.07285e-103
560.167,3.47623e-104
560.747,5.79058e-105
561.328,9.58096e-106
561.908,1.5746e-106
562.488,2.57041e-107
563.069,4.16782e-108
563.649,6.71257e-109
564.23,1.07385e-109
564.81,1.70635e-110
565.391,2.6932e-111
565.971,4.22223e-112
566.552,6.57489e-113
567.132,1.01697e-113
567.713,1.56243e-114
568.293,2.38434e-115
568.874,3.61416e-116
569.454,5.44152e-117
570.035,8.13778e-118
570.615,1.20883e-118
571.196,1.7836e-119
571.776,2.61399e-120
572.356,3.80526e-121
572.937,5.5022e-122
573.517,7.90247e-123
574.098,1.12736e-123
574.678,1.59748e-124
575.259,2.24844e-125
575.839,3.1434e-126
576.42,4.36508e-127
577,6.02085e-128
577.581,8.24892e-129
578.161,1.12256e-129
578.742,1.51738e-130
579.322,2.0373e-131
579.903,2.71698e-132
580.483,3.59908e-133
581.064,4.73555e-134
581.644,6.18903e-135
582.225,8.03431e-136
582.805,1.03597e-136
583.385,1.32684e-137
583.966,1.68797e-138
584.546,2.13296e-139
585.127,2.67717e-140
585.707,3.33765e-141
586.288,4.13313e-142
586.868,5.08383e-143
587.449,6.21121e-144
588.029,7.53762e-145
588.61,9.08586e-146
589.19,1.08786e-146
589.771,1.29375e-147
590.351,1.52827e-148
590.932,1.79319e-149
591.512,2.08989e-150
592.093,2.41933e-151
592.673,2.7819e-152
593.254,3.17731e-153
593.834,3.60454e-154
594.414,4.06177e-155
594.995,4.54625e-156
595.575,5.05434e-157
596.156,5.58148e-158
596.736,6.12219e-159
597.317,6.67019e-160
597.897,7.21843e-161
598.478,7.75926e-162
599.058,8.2846e-163
599.639,8.7861e-164
600.219,9.25537e-165
600.8,9.68422e-166
601.38,1.00649e-166
601.961,1.03903e-167
602.541,1.06541e-168
603.122,1.08513e-169
603.702,1.09779e-170
604.283,1.10314e-171
604.863,1.10107e-172
605.443,1.09162e-173
606.024,1.07498e-174
606.604,1.05149e-175
607.185,1.02161e-176
607.765,9.85903e-178
608.346,9.45057e-179
608.926,8.99819e-180
609.507,8.50992e-181
610.087,7.99409e-182
610.668,7.4591e-183
611.248,6.91316e-184
611.829,6.36415e-185
612.409,5.81939e-186
612.99,5.28552e-187
613.57,4.76838e-188
614.151,4.27295e-189
614.731,3.80328e-190
615.312,3.36249e-191
615.892,2.95283e-192
616.472,2.57566e-193
617.053,2.23158e-194
617.633,1.92047e-195
618.214,1.64164e-196
618.794,1.39387e-197
619.375,1.17554e-198
619.955,9.84754e-200
620.536,8.19391e-201
621.116,6.77216e-202
621.697,5.55952e-203
622.277,4.53336e-204
622.858,3.67178e-205
623.438,2.95397e-206
624.019,2.36053e-207
624.599,1.87364e-208
625.18,1.47718e-209
625.76,1.1568e-210
626.34,8.99816e-212
626.921,6.95221e-213
627.501,5.33538e-214
628.082,4.06707e-215
628.662,3.07943e-216
629.243,2.31597e-217
629.823,1.73009e-218
630.404,1.28374e-219
630.984,9.46153e-221
631.565,6.92655e-222
632.145,5.0367e-223
632.726,3.63788e-224
633.306,2.6099e-225
633.887,1.85983e-226
634.467,1.31642e-227
635.048,9.25531e-229
635.628,6.46338e-230
636.209,4.48334e-231
636.789,3.089e-232
637.369,2.11401e-233
637.95,1.43704e-234
638.53,9.70295e-236
639.111,6.50747e-237
639.691,4.33505e-238
640.272,2.86846e-239
640.852,1.88529e-240
641.433,1.23078e-241
642.013,7.98096e-243
642.594,5.14048e-244
643.174,3.28871e-245
643.755,2.08987e-246
644.335,1.31913e-247
644.916,8.27047e-249
645.496,5.15045e-250
646.077,3.18591e-251
646.657,1.95747e-252
647.238,1.19462e-253
647.818,7.24166e-255
648.398,4.36033e-256
648.979,2.6078e-257
649.559,1.54918e-258
650.14,9.1412e-260
650.72,5.35769e-261
651.301,3.11908e-262
651.881,1.80363e-263
652.462,1.03596e-264
653.042,5.9103e-266
653.623,3.34927e-267
654.203,1.88523e-268
654.784,1.05403e-269
655.364,5.85347e-271
655.945,3.22885e-272
656.525,1.76911e-273
657.106,9.62801e-275
657.686,5.20464e-276
658.267,2.79459e-277
658.847,1.49045e-278
659.427,7.89574e-280
660.008,4.15471e-281
660.588,2.17151e-282
661.169,1.12734e-283
661.749,5.81329e-285
662.33,2.97758e-286
662.91,1.51487e-287
663.491,7.65533e-289
664.071,3.84259e-290
664.652,1.91583e-291
665.232,9.48779e-293
665.813,4.66708e-294
666.393,2.28034e-295
666.974,1.10669e-296
667.554,5.3349e-298
668.135,2.55446e-299
668.715,1.21492e-300
669.296,5.7394e-302
669.876,2.69315e-303
670.456,1.25524e-304
671.037,5.81122e-306
671.617,2.67227e-307
672.198,1.22058e-308
672.778,5.53767e-310
673.359,2.49551e-311
673.939,1.11703e-312
674.52,4.96646e-314
675.1,2.19331e-315
675.681,9.62113e-317
676.261,4.192043e-318
676.842,1.81426e-319
677.422,7.8e-321
678.003,3.36e-322
678.583,1.5e-323
679.164,0.0
679.744,0.0
680.324,0.0
680.905,0.0
681.485,0.0
682.066,0.0
682.646,0.0
683.227,0.0
683.807,0.0
684.388,0.0
684.968,0.0
685.549,0.0
686.129,0.0
686.71,0.0
687.29,0.0
687.871,0.0
688.451,0.0
689.032,0.0
689.612,0.0
690.193,0.0
690.773,0.0
691.353,0.0
691.934,0.0
692.514,0.0
693.095,0.0
693.675,0.0
694.256,0.0
694.836,0.0
695.417,0.0
695.997,0.0
696.578,0.0
697.158,0.0
697.739,0.0
698.319,0.0
698.9,0.0
699.48,0.0
700.061,0.0
700.641,0.0
701.222,0.0
701.802,0.0
702.382,0.0
702.963,0.0
703.543,0.0
704.124,0.0
704.704,0.0
705.285,0.0
705.865,0.0
706.446,0.0
707.026,0.0
707.607,0.0
708.187,0.0
708.768,0.0
709.348,0.0
709.929,0.0
710.509,0.0
711.09,0.0
711.67,0.0
712.251,0.0
712.831,0.0
713.411,0.0
713.992,0.0
714.572,0.0
715.153,0.0
715.733,0.0
716.314,0.0
716.894,0.0
717.475,0.0
718.055,0.0
718.636,0.0
719.216,0.0
719.797,0.0
720.377,0.0
720.958,0.0
721.538,0.0
722.119,0.0
722.699,0.0
723.28,0.0
723.86,0.0
724.44,0.0
725.021,0.0
725.456,0.0