File: CRYSTAL-IR-RAMAN/log.PBE0446657-IR.csv
E(cm-1),I
0.01,6.72073e-237
0.620402,1.15393e-235
1.2308,1.96657e-234
1.84121,3.32661e-233
2.45161,5.58545e-232
3.06201,9.30845e-231
3.67241,1.53979e-229
4.28282,2.52818e-228
4.89322,4.1202e-227
5.50362,6.66489e-226
6.11402,1.07012e-224
6.72442,1.70543e-223
7.33483,2.69773e-222
7.94523,4.23573e-221
8.55563,6.60118e-220
9.16603,1.02112e-218
9.77644,1.56783e-217
10.3868,2.38937e-216
10.9972,3.61436e-215
11.6076,5.42678e-214
12.218,8.08757e-213
12.8284,1.19635e-211
13.4388,1.75655e-210
14.0493,2.55992e-209
14.6597,3.70303e-208
15.2701,5.3168e-207
15.8805,7.57719e-206
16.4909,1.07184e-204
17.1013,1.50492e-203
17.7117,2.09731e-202
18.3221,2.90119e-201
18.9325,3.98339e-200
19.5429,5.42866e-199
20.1533,7.34338e-198
20.7637,9.8597e-197
21.3741,1.314e-195
21.9845,1.73816e-194
22.5949,2.28217e-193
23.2053,2.9742e-192
23.8157,3.8473e-191
24.4261,4.93976e-190
25.0365,6.29535e-189
25.6469,7.96337e-188
26.2573,9.99856e-187
26.8677,1.24607e-185
27.4781,1.54138e-184
28.0885,1.89253e-183
28.6989,2.30642e-182
29.3093,2.78996e-181
29.9197,3.34982e-180
30.5301,3.99216e-179
31.1405,4.72235e-178
31.7509,5.54463e-177
32.3613,6.46176e-176
32.9717,7.47468e-175
33.5821,8.58219e-174
34.1925,9.78064e-173
34.8029,1.10637e-171
35.4133,1.24221e-170
36.0237,1.38439e-169
36.6341,1.53137e-168
37.2445,1.68139e-167
37.8549,1.8324e-166
38.4653,1.98215e-165
39.0757,2.12821e-164
39.6861,2.26807e-163
40.2965,2.39918e-162
40.9069,2.51903e-161
41.5174,2.62523e-160
42.1278,2.71559e-159
42.7382,2.78821e-158
43.3486,2.84152e-157
43.959,2.87435e-156
44.5694,2.88597e-155
45.1798,2.87613e-154
45.7902,2.84504e-153
46.4006,2.79339e-152
47.011,2.72232e-151
47.6214,2.63336e-150
48.2318,2.52839e-149
48.8422,2.40959e-148
49.4526,2.27932e-147
50.063,2.14008e-146
50.6734,1.99444e-145
51.2838,1.8449e-144
51.8942,1.69391e-143
52.5046,1.54373e-142
53.115,1.39642e-141
53.7254,1.25379e-140
54.3358,1.11737e-139
54.9462,9.88396e-139
55.5566,8.67822e-138
56.167,7.56299e-137
56.7774,6.54215e-136
57.3878,5.61708e-135
57.9982,4.78701e-134
58.6086,4.04933e-133
59.219,3.39989e-132
59.8294,2.83341e-131
60.4398,2.34379e-130
61.0502,1.92438e-129
61.6606,1.56829e-128
62.271,1.26861e-127
62.8814,1.01857e-126
63.4918,8.11745e-126
64.1022,6.42112e-125
64.7126,5.04157e-124
65.323,3.92902e-123
65.9334,3.03925e-122
66.5438,2.33353e-121
67.1542,1.77837e-120
67.7646,1.34523e-119
68.375,1.01003e-118
68.9854,7.52723e-118
69.5959,5.56801e-117
70.2063,4.08816e-116
70.8167,2.97934e-115
71.4271,2.15514e-114
72.0375,1.54738e-113
72.6479,1.10276e-112
73.2583,7.80057e-112
73.8687,5.47693e-111
74.4791,3.81691e-110
75.0895,2.64028e-109
75.6999,1.81281e-108
76.3103,1.23543e-107
76.9207,8.35694e-107
77.5311,5.611e-106
78.1415,3.73936e-105
78.7519,2.47353e-104
79.3623,1.62406e-103
79.9727,1.0584e-102
80.5831,6.84639e-102
81.1935,4.39579e-101
81.8039,2.8014e-100
82.4143,1.77206e-99
83.0247,1.11262e-98
83.6351,6.93387e-98
84.2455,4.28913e-97
84.8559,2.63346e-96
85.4663,1.6049e-95
86.0767,9.70809e-95
86.6871,5.82885e-94
87.2975,3.47372e-93
87.9079,2.05481e-92
88.5183,1.20646e-91
89.1287,7.03097e-91
89.7391,4.06708e-90
90.3495,2.33514e-89
90.9599,1.33079e-88
91.5703,7.52778e-88
92.1807,4.22658e-87
92.7911,2.35546e-86
93.4015,1.30294e-85
94.0119,7.15383e-85
94.6223,3.89866e-84
95.2327,2.1089e-83
95.8431,1.1323e-82
96.4535,6.03434e-82
97.064,3.19199e-81
97.6744,1.67594e-80
98.2848,8.73407e-80
98.8952,4.51794e-79
99.5056,2.31967e-78
100.116,1.18216e-77
100.726,5.97987e-77
101.337,3.00241e-76
101.947,1.49628e-75
102.558,7.40146e-75
103.168,3.63401e-74
103.778,1.771e-73
104.389,8.56675e-73
104.999,4.11317e-72
105.61,1.9602e-71
106.22,9.27232e-71
106.83,4.35351e-70
107.441,2.02887e-69
108.051,9.38499e-69
108.662,4.309e-68
109.272,1.96374e-67
109.882,8.88286e-67
110.493,3.98829e-66
111.103,1.7774e-65
111.714,7.86223e-65
112.324,3.452e-64
112.934,1.50439e-63
113.545,6.50746e-63
114.155,2.79401e-62
114.766,1.19071e-61
115.376,5.03676e-61
115.986,2.11475e-60
116.597,8.81311e-60
117.207,3.64556e-59
117.818,1.4968e-58
118.428,6.09993e-58
119.038,2.46746e-57
119.649,9.90695e-57
120.259,3.94815e-56
120.87,1.56175e-55
121.48,6.13184e-55
122.09,2.38966e-54
122.701,9.24365e-54
123.311,3.54908e-53
123.922,1.35254e-52
124.532,5.11623e-52
125.142,1.92094e-51
125.753,7.1588e-51
126.363,2.64808e-50
126.974,9.72265e-50
127.584,3.54326e-49
128.194,1.28169e-48
128.805,4.60182e-48
129.415,1.63998e-47
130.026,5.80111e-47
130.636,2.0368e-46
131.246,7.09819e-46
131.857,2.45534e-45
132.467,8.43023e-45
133.078,2.87297e-44
133.688,9.7182e-44
134.298,3.26291e-43
134.909,1.08739e-42
135.519,3.59694e-42
136.13,1.18098e-41
136.74,3.84872e-41
137.35,1.24496e-40
137.961,3.99719e-40
138.571,1.27386e-39
139.182,4.02948e-39
139.792,1.26515e-38
140.403,3.94273e-38
141.013,1.2196e-37
141.623,3.74455e-37
142.234,1.14116e-36
142.844,3.4519e-36
143.455,1.03641e-35
144.065,3.08866e-35
144.675,9.13634e-35
145.286,2.68249e-34
145.896,7.81749e-34
146.507,2.26131e-33
147.117,6.49258e-33
147.727,1.85028e-32
148.338,5.23386e-32
148.948,1.4695e-31
149.559,4.09526e-31
150.169,1.13281e-30
150.779,3.11026e-30
151.39,8.47616e-30
152,2.2928e-29
152.611,6.15596e-29
153.221,1.64055e-28
153.831,4.33958e-28
154.442,1.13938e-27
155.052,2.9693e-27
155.663,7.68074e-27
156.273,1.97204e-26
156.883,5.02565e-26
157.494,1.27125e-25
158.104,3.1918e-25
158.715,7.95432e-25
159.325,1.96759e-24
159.935,4.83091e-24
160.546,1.1773e-23
161.156,2.8478e-23
161.767,6.83748e-23
162.377,1.62947e-22
162.987,3.85442e-22
163.598,9.04975e-22
164.208,2.109e-21
164.819,4.87845e-21
165.429,1.12008e-20
166.039,2.5526e-20
166.65,5.77402e-20
167.26,1.2964e-19
167.871,2.88909e-19
168.481,6.39069e-19
169.091,1.40313e-18
169.702,3.05783e-18
170.312,6.61441e-18
170.923,1.42015e-17
171.533,3.02648e-17
172.143,6.40188e-17
172.754,1.34413e-16
173.364,2.80115e-16
173.975,5.79425e-16
174.585,1.18966e-15
175.195,2.42443e-15
175.806,4.90412e-15
176.416,9.84637e-15
177.027,1.96225e-14
177.637,3.88148e-14
178.247,7.62086e-14
178.858,1.48516e-13
179.468,2.87282e-13
180.079,5.51576e-13
180.689,1.05116e-12
181.299,1.98835e-12
181.91,3.73319e-12
182.52,6.95717e-12
183.131,1.28691e-11
183.741,2.36281e-11
184.351,4.30598e-11
184.962,7.78896e-11
185.572,1.39846e-10
186.183,2.49221e-10
186.793,4.40843e-10
187.403,7.74009e-10
188.014,1.34888e-09
188.624,2.33325e-09
189.235,4.00603e-09
189.845,6.82703e-09
190.455,1.15482e-08
191.066,1.93891e-08
191.676,3.23121e-08
192.287,5.34487e-08
192.897,8.77551e-08
193.508,1.43012e-07
194.118,2.31332e-07
194.728,3.71417e-07
195.339,5.91905e-07
195.949,9.36281e-07
196.56,1.47002e-06
197.17,2.2909e-06
197.78,3.54365e-06
198.391,5.44077e-06
199.001,8.2915e-06
199.612,1.25421e-05
200.222,1.88308e-05
200.832,2.8063e-05
201.443,4.15108e-05
202.053,6.0947e-05
202.664,8.88193e-05
203.274,0.000128477
203.884,0.000184463
204.495,0.000262878
205.105,0.000371848
205.716,0.000522082
206.326,0.000727572
206.936,0.00100641
207.547,0.00138179
208.157,0.00188309
208.768,0.0025472
209.378,0.00341994
209.988,0.00455762
210.599,0.00602867
211.209,0.00791533
211.82,0.0103152
212.43,0.013343
213.04,0.0171314
213.651,0.021832
214.261,0.027616
214.872,0.0346728
215.482,0.0432098
216.092,0.053449
216.703,0.0656236
217.313,0.0799732
217.924,0.0967369
218.534,0.116146
219.144,0.138414
219.755,0.163726
220.365,0.19223
220.976,0.224021
221.586,0.25913
222.196,0.297517
222.807,0.339055
223.417,0.383523
224.028,0.430603
224.638,0.479872
225.248,0.530809
225.859,0.582793
226.469,0.635118
227.08,0.687002
227.69,0.737608
228.3,0.786062
228.911,0.83148
229.521,0.872992
230.132,0.909772
230.742,0.941063
231.352,0.966203
231.963,0.98465
232.573,0.995999
233.184,1.0
233.794,0.996563
234.404,0.985764
235.015,0.967843
235.625,0.943194
236.236,0.912348
236.846,0.875959
237.456,0.834777
238.067,0.789625
238.677,0.741371
239.288,0.690897
239.898,0.63908
240.508,0.586761
241.119,0.534725
241.729,0.483686
242.34,0.43427
242.95,0.387008
243.56,0.342329
244.171,0.300561
244.781,0.261929
245.392,0.226568
246.002,0.194526
246.612,0.165776
247.223,0.140225
247.833,0.117733
248.444,0.098114
249.054,0.0811575
249.665,0.066633
250.275,0.0543019
250.885,0.0439242
251.496,0.035266
252.106,0.0281042
252.717,0.0222306
253.327,0.017454
253.937,0.013602
254.548,0.0105214
255.158,0.00807808
255.769,0.00615612
256.379,0.0046566
256.989,0.00349619
257.6,0.00260546
258.21,0.00192725
258.821,0.00141499
259.431,0.00103118
260.041,0.000745899
260.652,0.000535535
261.262,0.000381645
261.873,0.000269958
262.483,0.000189537
263.093,0.000132086
263.704,9.1366e-05
264.314,6.273e-05
264.925,4.27493e-05
265.535,2.89166e-05
266.145,1.94146e-05
266.756,1.29382e-05
267.366,8.55822e-06
267.977,5.61896e-06
268.587,3.66178e-06
269.197,2.36861e-06
269.808,1.52075e-06
270.418,9.69135e-07
271.029,6.13022e-07
271.639,3.84885e-07
272.249,2.39856e-07
272.86,1.48365e-07
273.47,9.10916e-08
274.081,5.55122e-08
274.691,3.35786e-08
275.301,2.01604e-08
275.912,1.20144e-08
276.522,7.10666e-09
277.133,4.17248e-09
277.743,2.43157e-09
278.353,1.40651e-09
278.964,8.07536e-10
279.574,4.60199e-10
280.185,2.60311e-10
280.795,1.46151e-10
281.405,8.14475e-11
282.016,4.50522e-11
282.626,2.47353e-11
283.237,1.34798e-11
283.847,7.29144e-12
284.457,3.91477e-12
285.068,2.08623e-12
285.678,1.10353e-12
286.289,5.79386e-13
286.899,3.01937e-13
287.509,1.56181e-13
288.12,8.01868e-14
288.73,4.08641e-14
289.341,2.06702e-14
289.951,1.0378e-14
290.561,5.17181e-15
291.172,2.55822e-15
291.782,1.25603e-15
292.393,6.12133e-16
293.003,2.96171e-16
293.613,1.42365e-16
294.224,6.82149e-17
294.834,3.30756e-17
295.445,1.72837e-17
296.055,1.18326e-17
296.665,1.35479e-17
297.276,2.33498e-17
297.886,4.67096e-17
298.497,9.65124e-17
299.107,1.99716e-16
299.717,4.11011e-16
300.328,8.39928e-16
300.938,1.70386e-15
301.549,3.43083e-15
302.159,6.85693e-15
302.769,1.36027e-14
303.38,2.67845e-14
303.99,5.23486e-14
304.601,1.01553e-13
305.211,1.95542e-13
305.822,3.73726e-13
306.432,7.08975e-13
307.042,1.33497e-12
307.653,2.49503e-12
308.263,4.62854e-12
308.874,8.52267e-12
309.484,1.55766e-11
310.094,2.82573e-11
310.705,5.08808e-11
311.315,9.0937e-11
311.926,1.61321e-10
312.536,2.84057e-10
313.146,4.96459e-10
313.757,8.61241e-10
314.367,1.48296e-09
314.978,2.53454e-09
315.588,4.29964e-09
316.198,7.23983e-09
316.809,1.21001e-08
317.419,2.0073e-08
318.03,3.30522e-08
318.64,5.40196e-08
319.25,8.76327e-08
319.861,1.41106e-07
320.471,2.25521e-07
321.082,3.57762e-07
321.692,5.63331e-07
322.302,8.80435e-07
322.913,1.36582e-06
323.523,2.10308e-06
324.134,3.21426e-06
324.744,4.87606e-06
325.354,7.34212e-06
325.965,1.09733e-05
326.575,1.62786e-05
327.186,2.39696e-05
327.796,3.50322e-05
328.406,5.08204e-05
329.017,7.31767e-05
329.627,0.000104585
330.238,0.000148366
330.848,0.00020891
331.458,0.000291977
332.069,0.000405043
332.679,0.000557722
333.29,0.000762252
333.9,0.00103405
334.51,0.00139236
335.121,0.0018609
335.731,0.00246864
336.342,0.00325055
336.952,0.00424835
337.562,0.0055112
338.173,0.00709638
338.783,0.00906965
339.394,0.0115056
340.004,0.0144874
340.614,0.0181065
341.225,0.0224618
341.835,0.0276577
342.446,0.0338028
343.056,0.0410065
343.666,0.0493761
344.277,0.0590125
344.887,0.070006
345.498,0.0824309
346.108,0.0963404
346.718,0.111761
347.329,0.128688
347.939,0.147078
348.55,0.166848
349.16,0.18787
349.77,0.20997
350.381,0.232929
350.991,0.256479
351.602,0.280313
352.212,0.304088
352.822,0.32743
353.433,0.349947
354.043,0.371235
354.654,0.390894
355.264,0.408539
355.874,0.42381
356.485,0.436389
357.095,0.446004
357.706,0.452448
358.316,0.455576
358.926,0.455321
359.537,0.451688
360.147,0.444756
360.758,0.43468
361.368,0.421679
361.979,0.406029
362.589,0.388057
363.199,0.368128
363.81,0.346629
364.42,0.323963
365.031,0.300531
365.641,0.276724
366.251,0.252911
366.862,0.229431
367.472,0.206586
368.083,0.184635
368.693,0.163791
369.303,0.144221
369.914,0.126047
370.524,0.109345
371.135,0.0941524
371.745,0.0804686
372.355,0.0682629
372.966,0.0574787
373.576,0.0480389
374.187,0.0398513
374.797,0.0328137
375.407,0.0268184
376.018,0.0217557
376.628,0.0175177
377.239,0.0140006
377.849,0.0111065
378.459,0.00874529
379.07,0.00683494
379.68,0.00530225
380.291,0.00408274
380.901,0.00312042
381.511,0.00236728
382.122,0.00178269
382.732,0.00133265
383.343,0.000989081
383.953,0.000729022
384.563,0.000533945
385.174,0.00038907
385.784,0.000282764
386.395,0.000206021
387.005,0.000152008
387.615,0.000115701
388.226,9.35962e-05
388.836,8.34917e-05
389.447,8.43513e-05
390.057,9.62331e-05
390.667,0.00012029
391.278,0.000158837
391.888,0.000215491
392.499,0.000295383
393.109,0.00040543
393.719,0.000554702
394.33,0.00075484
394.94,0.00102056
395.551,0.0013702
396.161,0.00182639
396.771,0.00241664
397.382,0.00317406
397.992,0.00413802
398.603,0.00535475
399.213,0.00687783
399.823,0.00876856
400.434,0.0110961
401.044,0.0139372
401.655,0.0173758
402.265,0.0215019
402.875,0.0264103
403.486,0.0321984
404.096,0.0389635
404.707,0.0468001
405.317,0.0557953
405.927,0.0660257
406.538,0.0775519
407.148,0.0904139
407.759,0.104626
408.369,0.120174
408.979,0.137008
409.59,0.15504
410.2,0.174142
410.811,0.194146
411.421,0.214842
412.031,0.235978
412.642,0.257269
413.252,0.278398
413.863,0.299027
414.473,0.3188
415.084,0.337356
415.694,0.354343
416.304,0.369421
416.915,0.382282
417.525,0.392654
418.136,0.400313
418.746,0.405092
419.356,0.406884
419.967,0.40565
420.577,0.401417
421.188,0.394279
421.798,0.384393
422.408,0.371973
423.019,0.357282
423.629,0.340623
424.24,0.32233
424.85,0.302755
425.46,0.282258
426.071,0.261194
426.681,0.239908
427.292,0.218721
427.902,0.197925
428.512,0.177776
429.123,0.158493
429.733,0.140252
430.344,0.123189
430.954,0.107399
431.564,0.0929378
432.175,0.0798266
432.785,0.068056
433.396,0.0575903
434.006,0.0483721
434.616,0.0403279
435.227,0.0333717
435.837,0.0274105
436.448,0.0223469
437.058,0.0180835
437.668,0.0145248
438.279,0.0115799
438.889,0.00916346
439.5,0.00719746
440.11,0.00561129
440.72,0.0043422
441.331,0.00333519
441.941,0.0025427
442.552,0.00192413
443.162,0.00144523
443.772,0.00107746
444.383,0.000797317
444.993,0.000585631
445.604,0.000426954
446.214,0.000308959
446.824,0.000221915
447.435,0.00015821
448.045,0.000111956
448.656,7.8636e-05
449.266,5.48227e-05
449.876,3.7937e-05
450.487,2.60573e-05
451.097,1.77648e-05
451.708,1.20214e-05
452.318,8.07443e-06
452.928,5.38311e-06
453.539,3.5622e-06
454.149,2.33974e-06
454.76,1.52539e-06
455.37,9.8709e-07
455.98,6.34011e-07
456.591,4.04204e-07
457.201,2.55781e-07
457.812,1.60657e-07
458.422,1.0016e-07
459.032,6.19802e-08
459.643,3.80694e-08
460.253,2.32093e-08
460.864,1.40447e-08
461.474,8.43578e-09
462.084,5.02924e-09
462.695,2.97607e-09
463.305,1.74803e-09
463.916,1.0191e-09
464.526,5.89724e-10
465.136,3.38723e-10
465.747,1.9311e-10
466.357,1.09277e-10
466.968,6.13782e-11
467.578,3.42188e-11
468.188,1.89356e-11
468.799,1.04006e-11
469.409,5.67021e-12
470.02,3.06835e-12
470.63,1.64806e-12
471.241,8.78633e-13
471.851,4.64948e-13
472.461,2.44211e-13
473.072,1.27318e-13
473.682,6.58835e-14
474.293,3.38398e-14
474.903,1.72522e-14
475.513,8.73017e-15
476.124,4.38496e-15
476.734,2.18611e-15
477.345,1.08179e-15
477.955,5.31344e-16
478.565,2.59044e-16
479.176,1.25353e-16
479.786,6.02088e-17
480.397,2.87044e-17
481.007,1.35832e-17
481.617,6.37995e-18
482.228,2.97439e-18
482.838,1.37639e-18
483.449,6.32191e-19
484.059,2.88217e-19
484.669,1.30423e-19
485.28,5.85804e-20
485.89,2.61165e-20
486.501,1.15569e-20
487.111,5.0761e-21
487.721,2.21301e-21
488.332,9.57637e-22
488.942,4.11322e-22
489.553,1.75358e-22
490.163,7.42052e-23
490.773,3.11678e-23
491.384,1.2994e-23
491.994,5.37702e-24
492.605,2.20854e-24
493.215,9.00391e-25
493.825,3.64353e-25
494.436,1.46344e-25
495.046,5.83437e-26
495.657,2.30874e-26
496.267,9.0682e-27
496.877,3.53533e-27
497.488,1.36805e-27
498.098,5.2546e-28
498.709,2.00327e-28
499.319,7.58061e-29
499.929,2.84729e-29
500.54,1.06151e-29
501.15,3.92806e-30
501.761,1.44277e-30
502.371,5.25993e-31
502.981,1.90338e-31
503.592,6.83654e-32
504.202,2.4373e-32
504.813,8.62477e-33
505.423,3.02934e-33
506.033,1.05612e-33
506.644,3.65462e-34
507.254,1.25526e-34
507.865,4.27947e-35
508.475,1.44814e-35
509.085,4.864e-36
509.696,1.62159e-36
510.306,5.36601e-37
510.917,1.76249e-37
511.527,5.74599e-38
512.137,1.85937e-38
512.748,5.97217e-39
513.358,1.90398e-39
513.969,6.02497e-40
514.579,1.8924e-40
515.189,5.89974e-41
515.8,1.82565e-41
516.41,5.60745e-42
517.021,1.70953e-42
517.631,5.17312e-43
518.241,1.55379e-43
518.852,4.63228e-44
519.462,1.37076e-44
520.073,4.02616e-45
520.683,1.17378e-45
521.293,3.39659e-46
521.904,9.75585e-47
522.514,2.78132e-47
523.125,7.87044e-48
523.735,2.21061e-48
524.345,6.16294e-49
524.956,1.70541e-49
525.566,4.68416e-50
526.177,1.27703e-50
526.787,3.45566e-51
527.398,9.28167e-52
528.008,2.47448e-52
528.618,6.54798e-53
529.229,1.71986e-53
529.839,4.48377e-54
530.45,1.16026e-54
531.06,2.98012e-55
531.67,7.59757e-56
532.281,1.92256e-56
532.891,4.8289e-57
533.502,1.20387e-57
534.112,2.97904e-58
534.722,7.31704e-59
535.333,1.78385e-59
535.943,4.31664e-60
536.554,1.0368e-60
537.164,2.47179e-61
537.774,5.8491e-62
538.385,1.37382e-62
538.995,3.20285e-63
539.606,7.4115e-64
540.216,1.70231e-64
540.826,3.88093e-65
541.437,8.78206e-66
542.047,1.97252e-66
542.658,4.39753e-67
543.268,9.73106e-68
543.878,2.13735e-68
544.489,4.65966e-69
545.099,1.00832e-69
545.71,2.16573e-70
546.32,4.61715e-71
546.93,9.7703e-72
547.541,2.05213e-72
548.151,4.27826e-73
548.762,8.85303e-74
549.372,1.81836e-74
549.982,3.70709e-75
550.593,7.50152e-76
551.203,1.50671e-76
551.814,3.00381e-77
552.424,5.94402e-78
553.034,1.16749e-78
553.645,2.27607e-79
554.255,4.40438e-80
554.866,8.45954e-81
555.476,1.61277e-81
556.086,3.05185e-82
556.697,5.73213e-83
557.307,1.06864e-83
557.918,1.97749e-84
558.528,3.6321e-85
559.138,6.62166e-86
559.749,1.19823e-86
560.359,2.15216e-87
560.97,3.83684e-88
561.58,6.78948e-89
562.19,1.19251e-89
562.801,2.079e-90
563.411,3.59756e-91
564.022,6.17912e-92
564.632,1.05344e-92
565.242,1.7826e-93
565.853,2.99408e-94
566.463,4.99155e-95
567.074,8.25985e-96
567.684,1.35666e-96
568.294,2.21175e-97
568.905,3.57902e-98
569.515,5.74852e-99
570.126,9.16454e-100
570.736,1.45021e-100
571.346,2.27778e-101
571.957,3.55107e-102
572.567,5.49501e-103
573.178,8.44e-104
573.788,1.28671e-104
574.398,1.94707e-105
575.009,2.92446e-106
575.619,4.35988e-107
576.23,6.45159e-108
576.84,9.47595e-109
577.45,1.38147e-109
578.061,1.99906e-110
578.671,2.87127e-111
579.282,4.0934e-112
579.892,5.79241e-113
580.503,8.13574e-114
581.113,1.13423e-114
581.723,1.56951e-115
582.334,2.15573e-116
582.944,2.93892e-117
583.555,3.9769e-118
584.165,5.34153e-119
584.775,7.12114e-120
585.386,9.42319e-121
585.996,1.23768e-121
586.607,1.61356e-122
587.217,2.08797e-123
587.827,2.68181e-124
588.438,3.41896e-125
589.048,4.32638e-126
589.659,5.43399e-127
590.269,6.77449e-128
590.879,8.38297e-129
591.49,1.02963e-129
592.1,1.25526e-130
592.711,1.51895e-131
593.321,1.8244e-132
593.931,2.17501e-133
594.542,2.57374e-134
595.152,3.02296e-135
595.763,3.52423e-136
596.373,4.07811e-137
596.983,4.68401e-138
597.594,5.33999e-139
598.204,6.04263e-140
598.815,6.78697e-141
599.425,7.56641e-142
600.035,8.37273e-143
600.646,9.19619e-144
601.256,1.00257e-144
601.867,1.08488e-145
602.477,1.16523e-146
603.087,1.24225e-147
603.698,1.31452e-148
604.308,1.38068e-149
604.919,1.43939e-150
605.529,1.48946e-151
606.139,1.52983e-152
606.75,1.55963e-153
607.36,1.57821e-154
607.971,1.58515e-155
608.581,1.5803e-156
609.191,1.56377e-157
609.802,1.53592e-158
610.412,1.49737e-159
611.023,1.44895e-160
611.633,1.39169e-161
612.243,1.32676e-162
612.854,1.25548e-163
613.464,1.1792e-164
614.075,1.09934e-165
614.685,1.01727e-166
615.295,9.34345e-168
615.906,8.51807e-169
616.516,7.70795e-170
617.127,6.9231e-171
617.737,6.17199e-172
618.347,5.46153e-173
618.958,4.79697e-174
619.568,4.18199e-175
620.179,3.61879e-176
620.789,3.10818e-177
621.399,2.64981e-178
622.01,2.24226e-179
622.62,1.8833e-180
623.231,1.57007e-181
623.841,1.29921e-182
624.451,1.0671e-183
625.062,8.69954e-185
625.672,7.03963e-186
626.283,5.65414e-187
626.893,4.50762e-188
627.503,3.56691e-189
628.114,2.80156e-190
628.724,2.1841e-191
629.335,1.69008e-192
629.945,1.2981e-193
630.555,9.89625e-195
631.166,7.48855e-196
631.776,5.62456e-197
632.387,4.19317e-198
632.997,3.10285e-199
633.607,2.27899e-200
634.218,1.66145e-201
634.828,1.20226e-202
635.439,8.63515e-204
636.049,6.15611e-205
636.66,4.35619e-206
637.27,3.05964e-207
637.88,2.13304e-208
638.491,1.47601e-209
639.101,1.01378e-210
639.712,6.91137e-212
640.322,4.67678e-213
640.932,3.14118e-214
641.543,2.09413e-215
642.153,1.38572e-216
642.764,9.10152e-218
643.374,5.93356e-219
643.984,3.83955e-220
644.595,2.46609e-221
645.205,1.57218e-222
645.816,9.94849e-224
646.426,6.24852e-225
647.036,3.89548e-226
647.647,2.4105e-227
648.257,1.48053e-228
648.868,9.02596e-230
649.478,5.46175e-231
650.088,3.28045e-232
650.699,1.95569e-233
651.309,1.15725e-234
651.92,6.79708e-236
652.53,3.96259e-237
653.14,2.29298e-238
653.751,1.317e-239
654.361,7.50814e-241
654.972,4.24858e-242
655.582,2.38627e-243
656.192,1.33033e-244
656.803,7.36143e-246
657.413,4.04323e-247
658.024,2.20424e-248
658.634,1.19276e-249
659.244,6.40636e-251
659.855,3.41533e-252
660.465,1.80725e-253
661.076,9.4922e-255
661.686,4.94857e-256
662.296,2.56068e-257
662.907,1.31521e-258
663.517,6.70502e-260
664.128,3.39287e-261
664.738,1.70411e-262
665.348,8.49559e-264
665.959,4.2039e-265
666.569,2.06479e-266
667.18,1.00661e-267
667.79,4.87092e-269
668.4,2.33951e-270
669.011,1.11533e-271
669.621,5.27768e-273
670.232,2.47884e-274
670.842,1.15562e-275
671.452,5.34747e-277
672.063,2.45609e-278
672.673,1.11971e-279
673.284,5.06672e-281
673.894,2.2757e-282
674.504,1.01453e-283
675.115,4.48931e-285
675.725,1.97178e-286
676.336,8.59606e-288
676.946,3.71968e-289
677.556,1.59762e-290
678.167,6.81095e-292
678.777,2.88207e-293
679.388,1.2105e-294
679.998,5.04649e-296
680.608,2.08822e-297
681.219,8.57687e-299
681.829,3.49658e-300
682.44,1.41489e-301
683.05,5.68285e-303
683.66,2.26554e-304
684.271,8.96484e-306
684.881,3.52108e-307
685.492,1.3727e-308
686.102,5.31172e-310
686.712,2.04014e-311
687.323,7.77767e-313
687.933,2.94308e-314
688.544,1.1054e-315
689.154,4.120958e-317
689.764,1.524904e-318
690.375,5.6007e-320
690.985,2.04e-321
691.596,7.4e-323
692.206,0.0
692.817,0.0
693.427,0.0
694.037,0.0
694.648,0.0
695.258,0.0
695.869,0.0
696.479,0.0
697.089,0.0
697.7,0.0
698.31,0.0
698.921,0.0
699.531,0.0
700.141,0.0
700.752,0.0
701.362,0.0
701.973,0.0
702.583,0.0
703.193,0.0
703.804,0.0
704.414,0.0
705.025,0.0
705.635,0.0
706.245,0.0
706.856,0.0
707.466,0.0
708.077,0.0
708.687,0.0
709.297,0.0
709.908,0.0
710.518,0.0
711.129,0.0
711.739,0.0
712.349,0.0
712.96,0.0
713.57,0.0
714.181,0.0
714.791,0.0
715.401,0.0
716.012,0.0
716.622,0.0
717.233,0.0
717.843,0.0
718.453,0.0
719.064,0.0
719.674,0.0
720.285,0.0
720.895,0.0
721.505,0.0
722.116,0.0
722.726,0.0
723.337,0.0
723.947,0.0
724.557,0.0
725.168,0.0
725.778,0.0
726.389,0.0
726.999,0.0
727.609,0.0
728.22,0.0
728.83,0.0
729.441,0.0
730.051,0.0
730.661,0.0
731.272,0.0
731.882,0.0
732.493,0.0
733.103,0.0
733.713,0.0
734.324,0.0
734.934,0.0
735.545,0.0
736.155,0.0
736.765,0.0
737.376,0.0
737.986,0.0
738.597,0.0
739.207,0.0
739.817,0.0
740.428,0.0
741.038,0.0
741.649,0.0
742.259,0.0
742.869,0.0
743.48,0.0
744.09,0.0
744.701,0.0
745.311,0.0
745.921,0.0
746.532,0.0
747.142,0.0
747.753,0.0
748.363,0.0
748.974,0.0
749.584,0.0
750.194,0.0
750.805,0.0
751.415,0.0
752.026,0.0
752.636,0.0
753.246,0.0
753.857,0.0
754.467,0.0
755.078,0.0
755.688,0.0
756.298,0.0
756.909,0.0
757.519,0.0
758.13,0.0
758.74,0.0
759.35,0.0
759.961,0.0
760.571,0.0
761.182,0.0
761.792,0.0
762.402,0.0
762.86,0.0