File: CRYSTAL-IR-RAMAN/log.PBE0446657-RAMAN.csv
E(cm-1),I
0.01,1.57372e-76
0.620402,7.84233e-76
1.2308,3.87905e-75
1.84121,1.90445e-74
2.45161,9.28063e-74
3.06201,4.489e-73
3.67241,2.15518e-72
4.28282,1.02703e-71
4.89322,4.85787e-71
5.50362,2.28072e-70
6.11402,1.06283e-69
6.72442,4.91605e-69
7.33483,2.25701e-68
7.94523,1.02853e-67
8.55563,4.65222e-67
9.16603,2.08867e-66
9.77644,9.30768e-66
10.3868,4.11697e-65
10.9972,1.8075e-64
11.6076,7.87664e-64
12.218,3.40697e-63
12.8284,1.46271e-62
13.4388,6.23324e-62
14.0493,2.63653e-61
14.6597,1.10692e-60
15.2701,4.61276e-60
15.8805,1.90796e-59
16.4909,7.83328e-59
17.1013,3.19213e-58
17.7117,1.29116e-57
18.3221,5.18377e-57
18.9325,2.06573e-56
19.5429,8.17082e-56
20.1533,3.20791e-55
20.7637,1.25009e-54
21.3741,4.83531e-54
21.9845,1.8564e-53
22.5949,7.07426e-53
23.2053,2.67581e-52
23.8157,1.0046e-51
24.4261,3.74365e-51
25.0365,1.38471e-50
25.6469,5.08381e-50
26.2573,1.8526e-49
26.8677,6.70098e-49
27.4781,2.4058e-48
28.0885,8.5732e-48
28.6989,3.03243e-47
29.3093,1.06464e-46
29.9197,3.71003e-46
30.5301,1.28326e-45
31.1405,4.40573e-45
31.7509,1.50136e-44
32.3613,5.07825e-44
32.9717,1.70494e-43
33.5821,5.68153e-43
34.1925,1.87926e-42
34.8029,6.1698e-42
35.4133,2.01057e-41
36.0237,6.50328e-41
36.6341,2.08789e-40
37.2445,6.65346e-40
37.8549,2.10451e-39
38.4653,6.60721e-39
39.0757,2.05897e-38
39.6861,6.3686e-38
40.2965,1.95525e-37
40.9069,5.95832e-37
41.5174,1.80223e-36
42.1278,5.41077e-36
42.7382,1.6124e-35
43.3486,4.76924e-35
43.959,1.4002e-34
44.5694,4.08032e-34
45.1798,1.18022e-33
45.7902,3.38839e-33
46.4006,9.65582e-33
47.011,2.73117e-32
47.6214,7.66781e-32
48.2318,2.13677e-31
48.8422,5.91028e-31
49.4526,1.62264e-30
50.063,4.42181e-30
50.6734,1.19603e-29
51.2838,3.21105e-29
51.8942,8.55688e-29
52.5046,2.26333e-28
53.115,5.94216e-28
53.7254,1.54848e-27
54.3358,4.00524e-27
54.9462,1.02829e-26
55.5566,2.6204e-26
56.167,6.62799e-26
56.7774,1.66403e-25
57.3878,4.1467e-25
57.9982,1.02567e-24
58.6086,2.51813e-24
59.219,6.13638e-24
59.8294,1.48426e-23
60.4398,3.56345e-23
61.0502,8.49171e-23
61.6606,2.00855e-22
62.271,4.71558e-22
62.8814,1.09888e-21
63.4918,2.54174e-21
64.1022,5.83545e-21
64.7126,1.32978e-20
65.323,3.00782e-20
65.9334,6.75283e-20
66.5438,1.50482e-19
67.1542,3.32848e-19
67.7646,7.30755e-19
68.375,1.59243e-18
68.9854,3.4444e-18
69.5959,7.39487e-18
70.2063,1.57584e-17
70.8167,3.33315e-17
71.4271,6.99782e-17
72.0375,1.45826e-16
72.6479,3.01627e-16
73.2583,6.19254e-16
73.8687,1.26192e-15
74.4791,2.55245e-15
75.0895,5.12446e-15
75.6999,1.02118e-14
76.3103,2.01985e-14
76.9207,3.96552e-14
77.5311,7.72762e-14
78.1415,1.4947e-13
78.7519,2.86964e-13
79.3623,5.46843e-13
79.9727,1.03434e-12
80.5831,1.9419e-12
81.1935,3.61871e-12
81.8039,6.69337e-12
82.4143,1.22885e-11
83.0247,2.23933e-11
83.6351,4.05042e-11
84.2455,7.27187e-11
84.8559,1.29585e-10
85.4663,2.29208e-10
86.0767,4.02408e-10
86.6871,7.0124e-10
87.2975,1.21292e-09
87.9079,2.08238e-09
88.5183,3.54855e-09
89.1287,6.00215e-09
89.7391,1.00769e-08
90.3495,1.67923e-08
90.9599,2.77751e-08
91.5703,4.56002e-08
92.1807,7.43089e-08
92.7911,1.20193e-07
93.4015,1.92966e-07
94.0119,3.07501e-07
94.6223,4.86379e-07
95.2327,7.63603e-07
95.8431,1.18994e-06
96.4535,1.84054e-06
97.064,2.82572e-06
97.6744,4.30602e-06
98.2848,6.5131e-06
98.8952,9.77829e-06
99.5056,1.45714e-05
100.116,2.15528e-05
100.726,3.16425e-05
101.337,4.61105e-05
101.947,6.66951e-05
102.558,9.57528e-05
103.168,0.00013645
103.778,0.000193
104.389,0.00027096
104.999,0.000377588
105.61,0.000522269
106.22,0.000717024
106.83,0.000977096
107.441,0.00132161
108.051,0.00177433
108.662,0.00236445
109.272,0.00312743
109.882,0.00410592
110.493,0.00535052
111.103,0.00692063
111.714,0.00888502
112.324,0.0113223
112.934,0.0143211
113.545,0.0179796
114.155,0.0224052
114.766,0.0277128
115.376,0.0340232
115.986,0.0414605
116.597,0.0501485
117.207,0.0602066
117.818,0.0717455
118.428,0.0848611
119.038,0.0996291
119.649,0.116099
120.259,0.134287
120.87,0.154171
121.48,0.175685
122.09,0.198715
122.701,0.223096
123.311,0.248608
123.922,0.274981
124.532,0.301893
125.142,0.328979
125.753,0.355834
126.363,0.382023
126.974,0.407095
127.584,0.430591
128.194,0.452063
128.805,0.471081
129.415,0.487256
130.026,0.500244
130.636,0.509765
131.246,0.515611
131.857,0.517652
132.467,0.515843
133.078,0.510224
133.688,0.500919
134.298,0.488133
134.909,0.472142
135.519,0.453285
136.13,0.431949
136.74,0.408562
137.35,0.383573
137.961,0.357438
138.571,0.330611
139.182,0.303527
139.792,0.276593
140.403,0.250178
141.013,0.224606
141.623,0.20015
142.234,0.177034
142.844,0.155424
143.455,0.135439
144.065,0.117148
144.675,0.100575
145.286,0.085705
145.896,0.0724916
146.507,0.0608601
147.117,0.0507156
147.727,0.0419483
148.338,0.034439
148.948,0.028064
149.559,0.0226994
150.169,0.0182239
150.779,0.0145222
151.39,0.0114865
152,0.00901795
152.611,0.00702736
153.221,0.00543554
153.831,0.00417311
154.442,0.00318016
155.052,0.00240556
155.663,0.00180624
156.273,0.00134633
156.883,0.000996299
157.494,0.000732123
158.104,0.00053445
158.715,0.000387871
159.325,0.000280251
159.935,0.000202137
160.546,0.000146255
161.156,0.000107077
161.767,8.04675e-05
162.377,6.33838e-05
162.987,5.3643e-05
163.598,4.97307e-05
164.208,5.06521e-05
164.819,5.58154e-05
165.429,6.49415e-05
166.039,7.7994e-05
166.65,9.51247e-05
167.26,0.00011663
167.871,0.000142915
168.481,0.000174462
169.091,0.0002118
169.702,0.000255482
170.312,0.000306048
170.923,0.000364002
171.533,0.00042978
172.143,0.000503716
172.754,0.000586012
173.364,0.000676706
173.975,0.000775644
174.585,0.000882451
175.195,0.000996516
175.806,0.00111697
176.416,0.00124269
177.027,0.0013723
177.637,0.00150418
178.247,0.00163649
178.858,0.00176722
179.468,0.00189422
180.079,0.00201528
180.689,0.00212816
181.299,0.00223068
181.91,0.00232077
182.52,0.00239658
183.131,0.00245649
183.741,0.00249921
184.351,0.00252379
184.962,0.00252969
185.572,0.00251678
186.183,0.00248535
186.793,0.00243609
187.403,0.00237008
188.014,0.00228873
188.624,0.00219377
189.235,0.00208714
189.845,0.00197095
190.455,0.00184741
191.066,0.00171876
191.676,0.0015872
192.287,0.00145482
192.897,0.00132359
193.508,0.00119525
194.118,0.00107135
194.728,0.000953155
195.339,0.000841708
195.949,0.000737773
196.56,0.000641871
197.17,0.000554289
197.78,0.000475104
198.391,0.000404208
199.001,0.000341338
199.612,0.000286107
200.222,0.000238032
200.832,0.000196565
201.443,0.000161117
202.053,0.000131081
202.664,0.000105853
203.274,8.48454e-05
203.884,6.75022e-05
204.495,5.33054e-05
205.105,4.17819e-05
205.716,3.25064e-05
206.326,2.51023e-05
206.936,1.92408e-05
207.547,1.46384e-05
208.157,1.10543e-05
208.768,8.2857e-06
209.378,6.16442e-06
209.988,4.55217e-06
210.599,3.33664e-06
211.209,2.42752e-06
211.82,1.753e-06
212.43,1.2565e-06
213.04,8.93941e-07
213.651,6.31274e-07
214.261,4.42477e-07
214.872,3.07842e-07
215.482,2.12583e-07
216.092,1.45711e-07
216.703,9.91332e-08
217.313,6.69438e-08
217.924,4.4871e-08
218.534,2.98528e-08
219.144,1.97137e-08
219.755,1.29215e-08
220.365,8.40666e-09
220.976,5.42872e-09
221.586,3.47964e-09
222.196,2.21379e-09
222.807,1.39798e-09
223.417,8.76252e-10
224.028,5.45157e-10
224.638,3.36649e-10
225.248,2.06347e-10
225.859,1.2554e-10
226.469,7.58102e-11
227.08,4.54401e-11
227.69,2.70342e-11
228.3,1.59644e-11
228.911,9.35737e-12
229.521,5.44402e-12
230.132,3.14376e-12
230.742,1.80195e-12
231.352,1.02518e-12
231.963,5.78922e-13
232.573,3.24492e-13
233.184,1.80531e-13
233.794,9.96928e-14
234.404,5.46436e-14
235.015,2.97289e-14
235.625,1.60539e-14
236.236,8.60495e-15
236.846,4.57803e-15
237.456,2.41753e-15
238.067,1.26716e-15
238.677,6.59253e-16
239.288,3.40437e-16
239.898,1.74496e-16
240.508,8.87767e-17
241.119,4.48307e-17
241.729,2.24706e-17
242.34,1.11794e-17
242.95,5.5206e-18
243.56,2.70594e-18
244.171,1.31648e-18
244.781,6.35728e-19
245.392,3.04715e-19
246.002,1.44971e-19
246.612,6.84589e-20
247.223,3.20881e-20
247.833,1.49287e-20
248.444,6.89385e-21
249.054,3.15985e-21
249.665,1.43759e-21
250.275,6.49183e-22
250.885,2.9098e-22
251.496,1.29456e-22
252.106,5.7167e-23
252.717,2.50572e-23
253.327,1.09014e-23
253.937,4.70758e-24
254.548,2.01779e-24
255.158,8.58455e-25
255.769,3.62513e-25
256.379,1.51947e-25
256.989,6.32158e-26
257.6,2.61049e-26
258.21,1.07e-26
258.821,4.35318e-27
259.431,1.7579e-27
260.041,7.04606e-28
260.652,2.80325e-28
261.262,1.10698e-28
261.873,4.33894e-29
262.483,1.68807e-29
263.093,6.51869e-30
263.704,2.49859e-30
264.314,9.50587e-31
264.925,3.58966e-31
265.535,1.34548e-31
266.145,5.00572e-32
266.756,1.8485e-32
267.366,6.77541e-33
267.977,2.46499e-33
268.587,8.90142e-34
269.197,3.19056e-34
269.808,1.13511e-34
270.418,4.00841e-35
271.029,1.40498e-35
271.639,4.88802e-36
272.249,1.68795e-36
272.86,5.78561e-37
273.47,1.96835e-37
274.081,6.6469e-38
274.691,2.22792e-38
275.301,7.41216e-39
275.912,2.44767e-39
276.522,8.02278e-40
277.133,2.61012e-40
277.743,8.42869e-41
278.353,2.70161e-41
278.964,8.59508e-42
279.574,2.71419e-42
280.185,8.50736e-43
280.795,2.64675e-43
281.405,8.17324e-44
282.016,2.50518e-44
282.626,7.62165e-45
283.237,2.30156e-45
283.847,6.89856e-46
284.457,2.05238e-46
285.068,6.0607e-47
285.678,1.77644e-47
286.289,5.16823e-48
286.899,1.49244e-48
287.509,4.27775e-49
288.12,1.21702e-49
288.73,3.43672e-50
289.341,9.63285e-51
289.951,2.67996e-51
290.561,7.40058e-52
291.172,2.02846e-52
291.782,5.51864e-53
292.393,1.49025e-53
293.003,3.99441e-54
293.613,1.0627e-54
294.224,2.80627e-55
294.834,7.35558e-56
295.445,1.91397e-56
296.055,4.95523e-57
296.665,1.32238e-57
297.276,5.4913e-58
297.886,9.97598e-58
298.497,3.69285e-57
299.107,1.46159e-56
299.717,5.76986e-56
300.328,2.26153e-55
300.938,8.79855e-55
301.549,3.39769e-54
302.159,1.30233e-53
302.769,4.95475e-53
303.38,1.87105e-52
303.99,7.01316e-52
304.601,2.60919e-51
305.211,9.6352e-51
305.822,3.53167e-50
306.432,1.28488e-49
307.042,4.6399e-49
307.653,1.6631e-48
308.263,5.91688e-48
308.874,2.08944e-47
309.484,7.32373e-47
310.094,2.54799e-46
310.705,8.79885e-46
311.315,3.01591e-45
311.926,1.02606e-44
312.536,3.46493e-44
313.146,1.16139e-43
313.757,3.8639e-43
314.367,1.27596e-42
314.978,4.18227e-42
315.588,1.36066e-41
316.198,4.39392e-41
316.809,1.40838e-40
317.419,4.48072e-40
318.03,1.41495e-39
318.64,4.43505e-39
319.25,1.37981e-38
319.861,4.26093e-38
320.471,1.30603e-37
321.082,3.97342e-37
321.692,1.19989e-36
322.302,3.5965e-36
322.913,1.07e-35
323.523,3.15973e-35
324.134,9.26148e-35
324.744,2.69448e-34
325.354,7.78095e-34
325.965,2.23025e-33
326.575,6.34512e-33
327.186,1.7918e-32
327.796,5.02229e-32
328.406,1.39726e-31
329.017,3.8585e-31
329.627,1.0576e-30
330.238,2.87734e-30
330.848,7.77002e-30
331.458,2.08265e-29
332.069,5.54085e-29
332.679,1.46318e-28
333.29,3.83517e-28
333.9,9.97781e-28
334.51,2.57661e-27
335.121,6.60429e-27
335.731,1.68023e-26
336.342,4.24299e-26
336.952,1.06351e-25
337.562,2.6459e-25
338.173,6.53386e-25
338.783,1.60151e-24
339.394,3.8963e-24
340.004,9.40893e-24
340.614,2.25523e-23
341.225,5.36544e-23
341.835,1.26702e-22
342.446,2.96979e-22
343.056,6.90927e-22
343.666,1.59552e-21
344.277,3.65708e-21
344.887,8.32016e-21
345.498,1.87885e-20
346.108,4.21131e-20
346.718,9.36925e-20
347.329,2.06898e-19
347.939,4.53495e-19
348.55,9.86624e-19
349.16,2.13056e-18
349.77,4.56669e-18
350.381,9.71564e-18
350.991,2.05166e-17
351.602,4.30035e-17
352.212,8.94675e-17
352.822,1.84753e-16
353.433,3.78686e-16
354.043,7.70428e-16
354.654,1.55578e-15
355.264,3.11838e-15
355.874,6.20401e-15
356.485,1.22512e-14
357.095,2.40133e-14
357.706,4.67182e-14
358.316,9.02163e-14
358.926,1.72921e-13
359.537,3.28983e-13
360.147,6.21246e-13
360.758,1.16444e-12
361.368,2.16638e-12
361.979,4.00051e-12
362.589,7.33264e-12
363.199,1.33404e-11
363.81,2.40902e-11
364.42,4.31794e-11
365.031,7.68204e-11
365.641,1.35656e-10
366.251,2.37775e-10
366.862,4.13673e-10
367.472,7.14352e-10
368.083,1.22442e-09
368.693,2.08311e-09
369.303,3.51769e-09
369.914,5.89613e-09
370.524,9.80935e-09
371.135,1.61986e-08
371.745,2.65508e-08
372.355,4.31958e-08
372.966,6.97541e-08
373.576,1.11805e-07
374.187,1.77876e-07
374.797,2.8089e-07
375.407,4.4027e-07
376.018,6.8496e-07
376.628,1.05773e-06
377.239,1.62125e-06
377.849,2.46653e-06
378.459,3.72468e-06
379.07,5.58282e-06
379.68,8.30582e-06
380.291,1.22652e-05
380.901,1.79776e-05
381.511,2.61548e-05
382.122,3.77689e-05
382.732,5.41355e-05
383.343,7.70182e-05
383.953,0.00010876
384.563,0.000152443
385.174,0.000212085
385.784,0.00029287
386.395,0.000401425
387.005,0.000546133
387.615,0.000737489
388.226,0.000988499
388.836,0.00131511
389.447,0.00173664
390.057,0.00227626
390.667,0.0029614
391.278,0.00382416
391.888,0.00490162
392.499,0.006236
393.109,0.00787475
393.719,0.00987032
394.33,0.0122797
394.94,0.0151639
395.551,0.0185865
396.161,0.0226124
396.771,0.027306
397.382,0.0327292
397.992,0.0389382
398.603,0.0459811
399.213,0.0538949
399.823,0.0627016
400.434,0.0724059
401.044,0.0829914
401.655,0.0944182
402.265,0.106621
402.875,0.119507
403.486,0.132955
404.096,0.146819
404.707,0.160925
405.317,0.175077
405.927,0.189059
406.538,0.202642
407.148,0.215589
407.759,0.22766
408.369,0.238622
408.979,0.248255
409.59,0.256359
410.2,0.262762
410.811,0.267326
411.421,0.26995
412.031,0.270576
412.642,0.26919
413.252,0.265823
413.863,0.260549
414.473,0.253483
415.084,0.244779
415.694,0.234618
416.304,0.22321
416.915,0.21078
417.525,0.197564
418.136,0.183803
418.746,0.16973
419.356,0.155571
419.967,0.141535
420.577,0.127809
421.188,0.114557
421.798,0.101917
422.408,0.0899988
423.019,0.0788841
423.629,0.0686287
424.24,0.0592633
424.85,0.0507961
425.46,0.0432153
426.071,0.0364929
426.681,0.0305875
427.292,0.0254474
427.902,0.0210138
428.512,0.0172239
429.123,0.0140127
429.733,0.0113155
430.344,0.00906968
430.954,0.00721561
431.564,0.00569794
432.175,0.00446608
432.785,0.00347455
433.396,0.00268309
434.006,0.00205653
434.616,0.00156458
435.227,0.00118148
435.837,0.000885555
436.448,0.000658825
437.058,0.000486506
437.668,0.000356591
438.279,0.000259427
438.889,0.000187338
439.5,0.000134276
440.11,9.55289e-05
440.72,6.74583e-05
441.331,4.72824e-05
441.941,3.28948e-05
442.552,2.27153e-05
443.162,1.55695e-05
443.772,1.05924e-05
444.383,7.15281e-06
444.993,4.79428e-06
445.604,3.18958e-06
446.214,2.10624e-06
446.824,1.38053e-06
447.435,8.98145e-07
448.045,5.79978e-07
448.656,3.71741e-07
449.266,2.36501e-07
449.876,1.49345e-07
450.487,9.36072e-08
451.097,5.82362e-08
451.708,3.59617e-08
452.318,2.2042e-08
452.928,1.34099e-08
453.539,8.09776e-09
454.149,4.85364e-09
454.76,2.88758e-09
455.37,1.70515e-09
455.98,9.99439e-10
456.591,5.81452e-10
457.201,3.35764e-10
457.812,1.92451e-10
458.422,1.09488e-10
459.032,6.18272e-11
459.643,3.46541e-11
460.253,1.92795e-11
460.864,1.06463e-11
461.474,5.83532e-12
462.084,3.17465e-12
462.695,1.71431e-12
463.305,9.18857e-13
463.916,4.88844e-13
464.526,2.58142e-13
465.136,1.35307e-13
465.747,7.04021e-14
466.357,3.63722e-14
466.968,1.86786e-14
467.578,9.57619e-15
468.188,4.98521e-15
468.799,2.80064e-15
469.409,1.99861e-15
470.02,2.19134e-15
470.63,3.45287e-15
471.241,6.34328e-15
471.851,1.21377e-14
472.461,2.33451e-14
473.072,4.47092e-14
473.682,8.50572e-14
474.293,1.6065e-13
474.903,3.01193e-13
475.513,5.60512e-13
476.124,1.03538e-12
476.734,1.8984e-12
477.345,3.45503e-12
477.955,6.24152e-12
478.565,1.11919e-11
479.176,1.99204e-11
479.786,3.5194e-11
480.397,6.17191e-11
481.007,1.07436e-10
481.617,1.85638e-10
482.228,3.18394e-10
482.838,5.42064e-10
483.449,9.16058e-10
484.059,1.53669e-09
484.669,2.55882e-09
485.28,4.2295e-09
485.89,6.93961e-09
486.501,1.13027e-08
487.111,1.82738e-08
487.721,2.9328e-08
488.332,4.67246e-08
488.942,7.38961e-08
489.553,1.16015e-07
490.163,1.80813e-07
490.773,2.79749e-07
491.384,4.29676e-07
491.994,6.55162e-07
492.605,9.91742e-07
493.215,1.49038e-06
493.825,2.22357e-06
494.436,3.29357e-06
495.046,4.84344e-06
495.657,7.07161e-06
496.267,1.02511e-05
496.877,1.47543e-05
497.488,2.10851e-05
498.098,2.99191e-05
498.709,4.21552e-05
499.319,5.89788e-05
499.929,8.19396e-05
500.54,0.000113047
501.15,0.000154885
501.761,0.000210743
502.371,0.000284783
502.981,0.000382212
503.592,0.000509497
504.202,0.0006746
504.813,0.000887231
505.423,0.00115913
506.033,0.00150437
506.644,0.00193965
507.254,0.00248462
507.865,0.00316218
508.475,0.00399877
509.085,0.00502461
509.696,0.00627387
510.306,0.00778483
510.917,0.00959986
511.527,0.0117654
512.137,0.0143315
512.748,0.0173517
513.358,0.0208822
513.969,0.0249813
514.579,0.029708
515.189,0.0351209
515.8,0.0412768
516.41,0.0482287
517.021,0.0560239
517.631,0.0647019
518.241,0.0742918
518.852,0.0848102
519.462,0.0962582
520.073,0.10862
520.683,0.121858
521.293,0.135916
521.904,0.150712
522.514,0.166139
523.125,0.182068
523.735,0.198342
524.345,0.214783
524.956,0.231192
525.566,0.24735
526.177,0.263025
526.787,0.277978
527.398,0.291962
528.008,0.304737
528.618,0.31607
529.229,0.325746
529.839,0.333571
530.45,0.339384
531.06,0.343055
531.67,0.344497
532.281,0.343665
532.891,0.340558
533.502,0.335224
534.112,0.327753
534.722,0.318279
535.333,0.306973
535.943,0.294042
536.554,0.279715
537.164,0.264245
537.774,0.247894
538.385,0.23093
538.995,0.213618
539.606,0.196212
540.216,0.17895
540.826,0.162049
541.437,0.145699
542.047,0.130064
542.658,0.115275
543.268,0.101434
543.878,0.0886131
544.489,0.076854
545.099,0.0661735
545.71,0.0565646
546.32,0.0480001
546.93,0.0404362
547.541,0.0338163
548.151,0.0280739
548.762,0.0231364
549.372,0.018928
549.982,0.0153717
550.593,0.0123921
551.203,0.00991676
551.814,0.00787763
552.424,0.00621181
553.034,0.00486223
553.645,0.00377786
554.255,0.0029137
554.866,0.00223066
555.476,0.00169514
556.086,0.00127869
556.697,0.000957426
557.307,0.000711586
557.918,0.000524964
558.528,0.000384424
559.138,0.000279427
559.749,0.000201606
560.359,0.000144382
560.97,0.000102636
561.58,7.24199e-05
562.19,5.07212e-05
562.801,3.52609e-05
563.411,2.43315e-05
564.022,1.66654e-05
564.632,1.13301e-05
565.242,7.64572e-06
565.853,5.12123e-06
566.463,3.40486e-06
567.074,2.24695e-06
567.684,1.47182e-06
568.294,9.56939e-07
568.905,6.17563e-07
569.515,3.9559e-07
570.126,2.51523e-07
570.736,1.58736e-07
571.346,9.94349e-08
571.957,6.18258e-08
572.567,3.81563e-08
573.178,2.33738e-08
573.788,1.42121e-08
574.398,8.5773e-09
575.009,5.13818e-09
575.619,3.05516e-09
576.23,1.80312e-09
576.84,1.05628e-09
577.45,6.14184e-10
578.061,3.54475e-10
578.671,2.0307e-10
579.282,1.15478e-10
579.892,6.51955e-11
580.503,3.65636e-11
581.113,2.04114e-11
581.723,1.14215e-11
582.334,6.55776e-12
582.944,4.14088e-12
583.555,3.32612e-12
584.165,3.83702e-12
584.775,5.88227e-12
585.386,1.02335e-11
585.996,1.84907e-11
586.607,3.3617e-11
587.217,6.09025e-11
587.827,1.09639e-10
588.438,1.95972e-10
589.048,3.4772e-10
589.659,6.12405e-10
590.269,1.07057e-09
590.879,1.85761e-09
591.49,3.19934e-09
592.1,5.46927e-09
592.711,9.28029e-09
593.321,1.563e-08
593.931,2.61287e-08
594.542,4.33552e-08
595.152,7.1405e-08
595.763,1.16729e-07
596.373,1.89406e-07
596.983,3.05051e-07
597.594,4.87657e-07
598.204,7.73786e-07
598.815,1.21868e-06
599.425,1.90513e-06
600.035,2.95611e-06
600.646,4.55283e-06
601.256,6.95994e-06
601.867,1.05607e-05
602.477,1.59054e-05
603.087,2.37772e-05
603.698,3.5281e-05
604.308,5.19617e-05
604.919,7.5961e-05
605.529,0.00011022
606.139,0.000158743
606.75,0.000226931
607.36,0.000321999
607.971,0.000453503
608.581,0.000633971
609.191,0.000879674
609.802,0.00121154
610.412,0.00165622
611.023,0.00224731
611.633,0.00302671
612.243,0.00404615
612.854,0.00536879
613.464,0.00707091
614.075,0.00924353
614.685,0.011994
615.295,0.0154474
615.906,0.0197473
616.516,0.0250568
617.127,0.0315578
617.737,0.0394504
618.347,0.0489508
618.958,0.0602881
619.568,0.0737
620.179,0.0894267
620.789,0.107704
621.399,0.128753
622.01,0.152774
622.62,0.17993
623.231,0.21034
623.841,0.244064
624.451,0.281092
625.062,0.321335
625.672,0.364613
626.283,0.410647
626.893,0.45906
627.503,0.50937
628.114,0.560998
628.724,0.613272
629.335,0.665439
629.945,0.716684
630.555,0.766144
631.166,0.812937
631.776,0.856185
632.387,0.895038
632.997,0.928708
633.607,0.95649
634.218,0.977791
634.828,0.992144
635.439,0.999234
636.049,0.998904
636.66,0.99116
637.27,0.976174
637.88,0.954278
638.491,0.925947
639.101,0.891787
639.712,0.85251
640.322,0.808913
640.932,0.761847
641.543,0.712193
642.153,0.660832
642.764,0.608623
643.374,0.556377
643.984,0.50484
644.595,0.454676
645.205,0.406457
645.816,0.360654
646.426,0.317636
647.036,0.277673
647.647,0.240935
648.257,0.207506
648.868,0.177388
649.478,0.150516
650.088,0.126767
650.699,0.105972
651.309,0.0879305
651.92,0.072419
652.53,0.059201
653.14,0.0480363
653.751,0.0386878
654.361,0.0309273
654.972,0.0245399
655.582,0.0193272
656.192,0.0151087
656.803,0.0117233
657.413,0.00902893
658.024,0.00690218
658.634,0.00523722
659.244,0.00394437
659.855,0.00294862
660.465,0.00218788
661.076,0.00161136
661.686,0.00117795
662.296,0.000854715
662.907,0.000615576
663.517,0.000440053
664.128,0.000312243
664.738,0.000219909
665.348,0.00015373
665.959,0.000106669
666.569,7.34647e-05
667.18,5.02209e-05
667.79,3.40764e-05
668.4,2.29503e-05
669.011,1.53421e-05
669.621,1.01799e-05
670.232,6.70455e-06
670.842,4.38286e-06
671.452,2.84387e-06
672.063,1.83158e-06
672.673,1.17086e-06
673.284,7.4293e-07
673.894,4.67902e-07
674.504,2.92499e-07
675.115,1.81493e-07
675.725,1.11778e-07
676.336,6.83312e-08
676.946,4.14614e-08
677.556,2.49708e-08
678.167,1.49275e-08
678.777,8.85732e-09
679.388,5.21654e-09
679.998,3.04949e-09
680.608,1.76943e-09
681.219,1.01907e-09
681.829,5.8256e-10
682.44,3.30552e-10
683.05,1.86167e-10
683.66,1.04071e-10
684.271,5.77455e-11
684.881,3.18033e-11
685.492,1.73856e-11
686.102,9.43345e-12
686.712,5.0806e-12
687.323,2.71596e-12
687.933,1.44111e-12
688.544,7.58983e-13
689.154,3.96764e-13
689.764,2.05871e-13
690.375,1.06028e-13
690.985,5.42017e-14
691.596,2.75022e-14
692.206,1.38512e-14
692.817,6.92417e-15
693.427,3.43569e-15
694.037,1.69209e-15
694.648,8.27173e-16
695.258,4.01359e-16
695.869,1.93301e-16
696.479,9.24055e-17
697.089,4.38456e-17
697.7,2.06499e-17
698.31,9.65324e-18
698.921,4.47912e-18
699.531,2.06289e-18
700.141,9.43022e-19
700.752,4.2789e-19
701.362,1.92711e-19
701.973,8.61478e-20
702.583,3.82248e-20
703.193,1.68349e-20
703.804,7.35935e-21
704.414,3.19324e-21
705.025,1.37527e-21
705.635,5.87907e-22
706.245,2.49455e-22
706.856,1.05061e-22
707.466,4.39188e-23
708.077,1.82233e-23
708.687,7.50524e-24
709.297,3.06808e-24
709.908,1.2449e-24
710.518,5.01375e-25
711.129,2.00427e-25
711.739,7.95268e-26
712.349,3.13209e-26
712.96,1.22439e-26
713.57,4.75081e-27
714.181,1.8297e-27
714.791,6.99448e-28
715.401,2.65396e-28
716.012,9.99535e-29
716.622,3.7365e-29
717.233,1.38642e-29
717.843,5.10611e-30
718.453,1.86659e-30
719.064,6.77283e-31
719.674,2.43925e-31
720.285,8.71976e-32
720.895,3.09398e-32
721.505,1.08967e-32
722.116,3.80921e-33
722.726,1.32172e-33
723.337,4.55205e-34
723.947,1.5561e-34
724.557,5.28e-35
725.168,1.77825e-35
725.778,5.9445e-36
726.389,1.97243e-36
726.999,6.49609e-37
727.609,2.12357e-37
728.22,6.89038e-38
728.83,2.21914e-38
729.441,7.09398e-39
730.051,2.25091e-39
730.661,7.0891e-40
731.272,2.21609e-40
731.882,6.87617e-41
732.493,2.11773e-41
733.103,6.47378e-42
733.713,1.9643e-42
734.324,5.91594e-43
734.934,1.76849e-43
735.545,5.2474e-44
736.155,1.54543e-44
736.765,4.51772e-45
737.376,1.31085e-45
737.986,3.77529e-46
738.597,1.07922e-46
739.207,3.06221e-47
739.817,8.62429e-48
740.428,2.41088e-48
741.038,6.68946e-49
741.649,1.84234e-49
742.259,5.03632e-50
742.869,1.36653e-50
743.48,3.68036e-51
744.09,9.83841e-52
744.701,2.6105e-52
745.311,6.87519e-53
745.921,1.79726e-53
746.532,4.66336e-54
747.142,1.20102e-54
747.753,3.07021e-55
748.363,7.7902e-56
748.974,1.96197e-56
749.584,4.90456e-57
750.194,1.21695e-57
750.805,2.99714e-58
751.415,7.32665e-59
752.026,1.77774e-59
752.636,4.28148e-60
753.246,1.02349e-60
753.857,2.4285e-61
754.467,5.71946e-62
755.078,1.33702e-62
755.688,3.10228e-63
756.298,7.1448e-64
756.909,1.63329e-64
757.519,3.70594e-65
758.13,8.34637e-66
758.74,1.86578e-66
759.35,4.13989e-67
759.961,9.11757e-68
760.571,1.99312e-68
761.182,4.32466e-69
761.792,9.31396e-70
762.402,1.99104e-70
762.86,6.22896e-71