File: CRYSTAL-IR-RAMAN/log.PBE446328-RAMAN.csv
E(cm-1),I
0.01,3.32963e-54
0.590473,1.1998e-53
1.17095,4.29433e-53
1.75142,1.52671e-52
2.33189,5.39124e-52
2.91237,1.89101e-51
3.49284,6.58831e-51
4.07331,2.27996e-50
4.65379,7.83707e-50
5.23426,2.6758e-49
5.81473,9.07457e-49
6.39521,3.05684e-48
6.97568,1.0228e-47
7.55615,3.39926e-47
8.13663,1.12215e-46
8.7171,3.67951e-46
9.29757,1.1984e-45
9.87804,3.87693e-45
10.4585,1.2458e-44
11.039,3.97631e-44
11.6195,1.26062e-43
12.1999,3.96977e-43
12.7804,1.2417e-42
13.3609,3.85783e-42
13.9414,1.19053e-41
14.5218,3.64934e-41
15.1023,1.11112e-40
15.6828,3.36031e-40
16.2633,1.00942e-39
16.8437,3.01187e-39
17.4242,8.92638e-39
18.0047,2.62777e-38
18.5851,7.68374e-38
19.1656,2.23168e-37
19.7461,6.43819e-37
20.3266,1.84488e-36
20.907,5.25106e-36
21.4875,1.48456e-35
22.068,4.16893e-35
22.6485,1.16285e-34
23.2289,3.22177e-34
23.8094,8.86624e-34
24.3899,2.42358e-33
24.9703,6.58036e-33
25.5508,1.77466e-32
26.1313,4.75393e-32
26.7118,1.26492e-31
27.2922,3.3431e-31
27.8727,8.77622e-31
28.4532,2.28844e-30
29.0337,5.92712e-30
29.6141,1.52483e-29
30.1946,3.89648e-29
30.7751,9.89003e-29
31.3556,2.49342e-28
31.936,6.24405e-28
32.5165,1.55314e-27
33.097,3.83733e-27
33.6774,9.41716e-27
34.2579,2.29554e-26
34.8384,5.55805e-26
35.4189,1.3367e-25
35.9993,3.19314e-25
36.5798,7.57661e-25
37.1603,1.78569e-24
37.7408,4.18032e-24
38.3212,9.72048e-24
38.9017,2.24511e-23
39.4822,5.15065e-23
40.0627,1.17371e-22
40.6431,2.65663e-22
41.2236,5.97275e-22
41.8041,1.3338e-21
42.3845,2.95857e-21
42.965,6.51847e-21
43.5455,1.42654e-20
44.126,3.10094e-20
44.7064,6.69541e-20
45.2869,1.43593e-19
45.8674,3.0589e-19
46.4479,6.47244e-19
47.0283,1.36033e-18
47.6088,2.83985e-18
48.1893,5.88869e-18
48.7698,1.21287e-17
49.3502,2.48134e-17
49.9307,5.04231e-17
50.5112,1.01776e-16
51.0916,2.0405e-16
51.6721,4.06349e-16
52.2526,8.03778e-16
52.8331,1.57923e-15
53.4135,3.08197e-15
53.994,5.97428e-15
54.5745,1.15031e-14
55.155,2.19998e-14
55.7354,4.17922e-14
56.3159,7.88578e-14
56.8964,1.47798e-13
57.4768,2.75146e-13
58.0573,5.08784e-13
58.6378,9.34493e-13
59.2183,1.70487e-12
59.7987,3.08945e-12
60.3792,5.56089e-12
60.9597,9.94216e-12
61.5402,1.76559e-11
62.1206,3.11439e-11
62.7011,5.45668e-11
63.2816,9.49637e-11
63.8621,1.64157e-10
64.4425,2.81862e-10
65.023,4.80712e-10
65.6035,8.14344e-10
66.1839,1.37026e-09
66.7644,2.29019e-09
67.3449,3.80202e-09
67.9254,6.26946e-09
68.5058,1.02688e-08
69.0863,1.67063e-08
69.6668,2.69971e-08
70.2473,4.33337e-08
70.8277,6.90888e-08
71.4082,1.09412e-07
71.9887,1.72104e-07
72.5692,2.68902e-07
73.1496,4.1732e-07
73.7301,6.43306e-07
74.3106,9.85008e-07
74.891,1.49808e-06
75.4715,2.2631e-06
76.052,3.39582e-06
76.6325,5.06128e-06
77.2129,7.49288e-06
77.7934,1.10182e-05
78.3739,1.60933e-05
78.9544,2.33482e-05
79.5348,3.36461e-05
80.1153,4.81604e-05
80.6958,6.84728e-05
81.2763,9.66984e-05
81.8567,0.000135642
82.4372,0.000188991
83.0177,0.000261555
83.5981,0.000359549
84.1786,0.000490937
84.7591,0.000665836
85.3396,0.000896978
85.92,0.00120024
86.5005,0.00159526
87.081,0.00210603
87.6615,0.00276168
88.2419,0.00359711
88.8224,0.00465381
89.4029,0.00598048
89.9833,0.00763373
90.5638,0.00967856
91.1443,0.0121887
91.7248,0.0152468
92.3052,0.0189441
92.8857,0.0233798
93.4662,0.0286603
94.0467,0.0348976
94.6271,0.0422068
95.2076,0.0507041
95.7881,0.060503
96.3686,0.0717107
96.949,0.0844237
97.5295,0.098723
98.11,0.114669
98.6904,0.132296
99.2709,0.151607
99.8514,0.17257
100.432,0.195113
101.012,0.219119
101.593,0.244426
102.173,0.270824
102.754,0.298058
103.334,0.325827
103.915,0.353791
104.495,0.381576
105.076,0.408778
105.656,0.434978
106.237,0.459748
106.817,0.482666
107.398,0.503323
107.978,0.521338
108.558,0.536372
109.139,0.548133
109.719,0.556389
110.3,0.560977
110.88,0.561804
111.461,0.558853
112.041,0.552184
112.622,0.54193
113.202,0.528294
113.783,0.511543
114.363,0.491996
114.944,0.470018
115.524,0.446005
116.105,0.420377
116.685,0.393561
117.266,0.36598
117.846,0.338047
118.427,0.310148
119.007,0.282641
119.587,0.255843
120.168,0.230031
120.748,0.205434
121.329,0.182235
121.909,0.16057
122.49,0.14053
123.07,0.122165
123.651,0.105487
124.231,0.0904742
124.812,0.0770768
125.392,0.0652222
125.973,0.0548202
126.553,0.0457677
127.134,0.0379535
127.714,0.031262
128.295,0.0255773
128.875,0.0207858
129.456,0.0167785
130.036,0.0134527
130.616,0.0107138
131.197,0.00847514
131.777,0.00665925
132.358,0.00519729
132.938,0.00402904
133.519,0.00310241
134.099,0.00237286
134.68,0.00180267
135.26,0.0013603
135.841,0.00101959
136.421,0.000759085
137.002,0.000561343
137.582,0.000412326
138.163,0.000300834
138.743,0.000218015
139.324,0.000156937
139.904,0.000112213
140.485,7.96978e-05
141.065,5.62283e-05
141.645,3.94095e-05
142.226,2.74446e-05
142.806,1.89966e-05
143.387,1.30792e-05
143.967,8.97114e-06
144.548,6.15024e-06
145.128,4.2422e-06
145.709,2.98236e-06
146.289,2.18689e-06
146.87,1.73156e-06
147.45,1.53639e-06
148.031,1.55473e-06
148.611,1.76584e-06
149.192,2.16998e-06
149.772,2.78559e-06
150.353,3.64789e-06
150.933,4.80872e-06
151.514,6.3372e-06
152.094,8.32107e-06
152.674,1.08685e-05
153.255,1.41103e-05
153.835,1.82019e-05
154.416,2.33258e-05
154.996,2.96936e-05
155.577,3.75471e-05
156.157,4.71597e-05
156.738,5.88358e-05
157.318,7.29101e-05
157.899,8.97444e-05
158.479,0.000109724
159.06,0.00013325
159.64,0.000160734
160.221,0.000192584
160.801,0.000229196
161.382,0.000270937
161.962,0.000318128
162.543,0.000371029
163.123,0.000429821
163.703,0.000494585
164.284,0.000565286
164.864,0.000641753
165.445,0.000723671
166.025,0.000810564
166.606,0.000901794
167.186,0.000996553
167.767,0.00109387
168.347,0.00119263
168.928,0.00129157
169.508,0.00138933
170.089,0.00148445
170.669,0.00157543
171.25,0.00166075
171.83,0.00173894
172.411,0.00180858
172.991,0.00186837
173.571,0.00191718
174.152,0.00195405
174.732,0.00197825
175.313,0.0019893
175.893,0.00198698
176.474,0.00197133
177.054,0.00194266
177.635,0.00190156
178.215,0.00184882
178.796,0.00178548
179.376,0.00171272
179.957,0.0016319
180.537,0.00154444
181.118,0.00145186
181.698,0.00135565
182.279,0.00125733
182.859,0.0011583
183.44,0.0010599
184.02,0.00096335
184.6,0.000869713
185.181,0.000779905
185.761,0.000694672
186.342,0.000614599
186.922,0.000540104
187.503,0.00047145
188.083,0.000408759
188.664,0.000352024
189.244,0.000301128
189.825,0.00025586
190.405,0.000215937
190.986,0.00018102
191.566,0.000150729
192.147,0.000124664
192.727,0.000102414
193.308,8.35703e-05
193.888,6.77355e-05
194.469,5.45324e-05
195.049,4.3608e-05
195.629,3.46378e-05
196.21,2.7328e-05
196.79,2.14161e-05
197.371,1.66703e-05
197.951,1.28891e-05
198.532,9.89859e-06
199.112,7.55088e-06
199.693,5.72131e-06
200.273,4.30592e-06
200.854,3.21892e-06
201.434,2.39017e-06
202.015,1.76287e-06
202.595,1.29147e-06
203.176,9.39768e-07
203.756,6.79253e-07
204.337,4.87658e-07
204.917,3.47755e-07
205.498,2.46322e-07
206.078,1.73304e-07
206.658,1.21111e-07
207.239,8.40689e-08
207.819,5.79641e-08
208.4,3.96969e-08
208.98,2.70039e-08
209.561,1.82461e-08
210.141,1.22458e-08
210.722,8.16353e-09
211.302,5.40557e-09
211.883,3.55532e-09
212.463,2.32268e-09
213.044,1.50721e-09
213.624,9.7147e-10
214.205,6.21956e-10
214.785,3.95515e-10
215.366,2.49827e-10
215.946,1.56744e-10
216.527,9.76817e-11
217.107,6.04658e-11
217.687,3.71775e-11
218.268,2.27051e-11
218.848,1.37733e-11
219.429,8.29906e-12
220.009,4.96698e-12
220.59,2.95276e-12
221.17,1.74357e-12
221.751,1.02264e-12
222.331,5.95769e-13
222.912,3.44752e-13
223.492,1.98157e-13
224.073,1.13132e-13
224.653,6.41558e-14
225.234,3.61375e-14
225.814,2.02188e-14
226.395,1.12363e-14
226.975,6.2025e-15
227.556,3.40081e-15
228.136,1.85213e-15
228.716,1.00192e-15
229.297,5.38357e-16
229.877,2.87329e-16
230.458,1.52322e-16
231.038,8.0208e-17
231.619,4.19514e-17
232.199,2.17946e-17
232.78,1.12467e-17
233.36,5.76466e-18
233.941,2.93492e-18
234.521,1.4842e-18
235.102,7.45521e-19
235.682,3.71965e-19
236.263,1.84339e-19
236.843,9.07416e-20
237.424,4.43679e-20
238.004,2.15478e-20
238.584,1.03947e-20
239.165,4.98074e-21
239.745,2.37055e-21
240.326,1.12067e-21
240.906,5.26235e-22
241.487,2.45445e-22
242.067,1.13711e-22
242.648,5.23269e-23
243.228,2.39177e-23
243.809,1.0859e-23
244.389,4.89699e-24
244.97,2.19353e-24
245.55,9.75961e-25
246.131,4.31315e-25
246.711,1.89334e-25
247.292,8.25538e-26
247.872,3.57535e-26
248.453,1.53806e-26
249.033,6.57205e-27
249.613,2.78934e-27
250.194,1.17592e-27
250.774,4.92407e-28
251.355,2.04807e-28
251.935,8.46136e-29
252.516,3.47222e-29
253.096,1.4153e-29
253.677,5.73011e-30
254.257,2.30436e-30
254.838,9.20474e-31
255.418,3.65213e-31
255.999,1.43931e-31
256.579,5.63423e-32
257.16,2.19073e-32
257.74,8.46088e-33
258.321,3.24576e-33
258.901,1.23677e-33
259.482,4.68099e-34
260.062,1.75978e-34
260.642,6.57131e-35
261.223,2.43736e-35
261.803,8.97966e-36
262.384,3.28605e-36
262.964,1.19443e-36
263.545,4.31242e-37
264.125,1.54652e-37
264.706,5.50886e-38
265.286,1.94913e-38
265.867,6.85008e-39
266.447,2.39124e-39
267.028,8.2913e-40
267.608,2.85559e-40
268.189,9.76883e-41
268.769,3.31942e-41
269.35,1.12036e-41
269.93,3.75597e-42
270.511,1.25073e-42
271.091,4.13691e-43
271.671,1.35913e-43
272.252,4.43529e-44
272.832,1.43766e-44
273.413,4.62873e-45
273.993,1.48028e-45
274.574,4.70256e-46
275.154,1.48509e-46
275.735,4.69959e-47
276.315,1.61556e-47
276.896,1.00989e-47
277.476,2.00553e-47
278.057,6.20591e-47
278.637,2.0215e-46
279.218,6.57718e-46
279.798,2.12668e-45
280.379,6.83063e-45
280.959,2.17918e-44
281.54,6.90558e-44
282.12,2.1736e-43
282.7,6.79568e-43
283.281,2.11037e-42
283.861,6.50967e-42
284.442,1.99449e-41
285.022,6.06985e-41
285.603,1.83484e-40
286.183,5.50922e-40
286.764,1.64307e-39
287.344,4.86739e-39
287.925,1.43222e-38
288.505,4.18596e-38
289.086,1.21522e-37
289.666,3.50418e-37
290.247,1.00367e-36
290.827,2.85543e-36
291.408,8.06908e-36
291.988,2.2649e-35
292.569,6.31465e-35
293.149,1.74872e-34
293.729,4.81024e-34
294.31,1.31427e-33
294.89,3.5668e-33
295.471,9.61488e-33
296.051,2.57444e-32
296.632,6.84691e-32
297.212,1.80876e-31
297.793,4.74612e-31
298.373,1.237e-30
298.954,3.20241e-30
299.534,8.23484e-30
300.115,2.10333e-29
300.695,5.3362e-29
301.276,1.34472e-28
301.856,3.36591e-28
302.437,8.3685e-28
303.017,2.06665e-27
303.597,5.06942e-27
304.178,1.23516e-26
304.758,2.98924e-26
305.339,7.18576e-26
305.919,1.71576e-25
306.5,4.06926e-25
307.08,9.58622e-25
307.661,2.24312e-24
308.241,5.21351e-24
308.822,1.2036e-23
309.402,2.75998e-23
309.983,6.28643e-23
310.563,1.42225e-22
311.144,3.1961e-22
311.724,7.13408e-22
312.305,1.58172e-21
312.885,3.48332e-21
313.466,7.61959e-21
314.046,1.65555e-20
314.626,3.57295e-20
315.207,7.65922e-20
315.787,1.63086e-19
316.368,3.44921e-19
316.948,7.24598e-19
317.529,1.51199e-18
318.109,3.13381e-18
318.69,6.45163e-18
319.27,1.31929e-17
319.851,2.67969e-17
320.431,5.40632e-17
321.012,1.08341e-16
321.592,2.15653e-16
322.173,4.26377e-16
322.753,8.37344e-16
323.334,1.63338e-15
323.914,3.16479e-15
324.495,6.09082e-15
325.075,1.16434e-14
325.655,2.21083e-14
326.236,4.16972e-14
326.816,7.81142e-14
327.397,1.45354e-13
327.977,2.68656e-13
328.558,4.9322e-13
329.138,8.99409e-13
329.719,1.6291e-12
330.299,2.93097e-12
330.88,5.23778e-12
331.46,9.29731e-12
332.041,1.63923e-11
332.621,2.87076e-11
333.202,4.99375e-11
333.782,8.6284e-11
334.363,1.48084e-10
334.943,2.52439e-10
335.524,4.27444e-10
336.104,7.18912e-10
336.684,1.20101e-09
337.265,1.99291e-09
337.845,3.28477e-09
338.426,5.37767e-09
339.006,8.74495e-09
339.587,1.41252e-08
340.167,2.26622e-08
340.748,3.61148e-08
341.328,5.71665e-08
341.909,8.98816e-08
342.489,1.4037e-07
343.07,2.17746e-07
343.65,3.35505e-07
344.231,5.13477e-07
344.811,7.80579e-07
345.392,1.17865e-06
345.972,1.76778e-06
346.553,2.63356e-06
347.133,3.89702e-06
347.713,5.7279e-06
348.294,8.3624e-06
348.874,1.21266e-05
349.455,1.74671e-05
350.035,2.49906e-05
350.616,3.55145e-05
351.196,5.01312e-05
351.777,7.02884e-05
352.357,9.78886e-05
352.938,0.000135411
353.518,0.000186058
354.099,0.000253932
354.679,0.000344239
355.26,0.000463527
355.84,0.000619959
356.421,0.000823616
357.001,0.00108683
357.582,0.00142452
358.162,0.0018546
358.742,0.00239831
359.323,0.00308058
359.903,0.00393038
360.484,0.00498092
361.064,0.00626985
361.645,0.00783933
362.225,0.00973584
362.806,0.01201
363.386,0.0147158
363.967,0.0179101
364.547,0.0216514
365.128,0.0259984
365.708,0.0310085
366.289,0.0367357
366.869,0.0432285
367.45,0.0505271
368.03,0.0586613
368.61,0.0676477
369.191,0.0774867
369.771,0.0881606
370.352,0.0996312
370.932,0.111838
371.513,0.124697
372.093,0.138101
372.674,0.151919
373.254,0.165997
373.835,0.180161
374.415,0.19422
374.996,0.20797
375.576,0.221198
376.157,0.233687
376.737,0.245224
377.318,0.255601
377.898,0.264629
378.479,0.272135
379.059,0.277974
379.639,0.282032
380.22,0.284226
380.8,0.284515
381.381,0.28289
381.961,0.279386
382.542,0.274072
383.122,0.267054
383.703,0.258467
384.283,0.248476
384.864,0.237268
385.444,0.225043
386.025,0.212014
386.605,0.198398
387.186,0.18441
387.766,0.170257
388.347,0.156134
388.927,0.142221
389.508,0.128678
390.088,0.115642
390.668,0.103229
391.249,0.0915297
391.829,0.0806111
392.41,0.0705182
392.99,0.0612746
393.571,0.0528851
394.151,0.0453377
394.732,0.0386063
395.312,0.0326536
395.893,0.0274332
396.473,0.0228927
397.054,0.0189753
397.634,0.0156226
398.215,0.012776
398.795,0.0103778
399.376,0.00837321
399.956,0.00671044
400.537,0.00534174
401.117,0.00422366
401.697,0.00331717
402.278,0.00258773
402.858,0.00200514
403.439,0.00154328
404.019,0.00117982
404.6,0.000895904
405.18,0.000675741
405.761,0.000506258
406.341,0.000376736
406.922,0.000278468
407.502,0.00020445
408.083,0.000149098
408.663,0.000108002
409.244,7.77075e-05
409.824,5.55352e-05
410.405,3.94227e-05
410.985,2.7797e-05
411.566,1.94681e-05
412.146,1.35432e-05
412.726,9.35821e-06
413.307,6.423e-06
413.887,4.37881e-06
414.468,2.96515e-06
415.048,1.9944e-06
415.629,1.33245e-06
416.209,8.84222e-07
416.79,5.82835e-07
417.37,3.81596e-07
417.951,2.48162e-07
418.531,1.60302e-07
419.112,1.02853e-07
419.692,6.55493e-08
420.273,4.14947e-08
420.853,2.6091e-08
421.434,1.62953e-08
422.014,1.01089e-08
422.595,6.22907e-09
423.175,3.81254e-09
423.755,2.31781e-09
424.336,1.39964e-09
424.916,8.39511e-10
425.497,5.00162e-10
426.077,2.95984e-10
426.658,1.7398e-10
427.238,1.01579e-10
427.819,5.89087e-11
428.399,3.39336e-11
428.98,1.94158e-11
429.56,1.10345e-11
430.141,6.2292e-12
430.721,3.49304e-12
431.302,1.94588e-12
431.882,1.07731e-12
432.463,5.93567e-13
433.043,3.2701e-13
433.623,1.83048e-13
434.204,1.09429e-13
434.784,7.8851e-14
435.365,7.96627e-14
435.945,1.11775e-13
436.526,1.86479e-13
437.106,3.30054e-13
437.687,5.92205e-13
438.267,1.06176e-12
438.848,1.89408e-12
439.428,3.35784e-12
440.009,5.91364e-12
440.589,1.03452e-11
441.17,1.79765e-11
441.75,3.10272e-11
442.331,5.31931e-11
442.911,9.05819e-11
443.492,1.53215e-10
444.072,2.57414e-10
444.652,4.29575e-10
445.233,7.12062e-10
445.813,1.17239e-09
446.394,1.91733e-09
446.974,3.11455e-09
447.555,5.02537e-09
448.135,8.05404e-09
448.716,1.28213e-08
449.296,2.02734e-08
449.877,3.18414e-08
450.457,4.96742e-08
451.038,7.69739e-08
451.618,1.18476e-07
452.199,1.8113e-07
452.779,2.75057e-07
453.36,4.14887e-07
453.94,6.21599e-07
454.521,9.25047e-07
455.101,1.36739e-06
455.681,2.00767e-06
456.262,2.92798e-06
456.842,4.24148e-06
457.423,6.10296e-06
458.003,8.72245e-06
458.584,1.23826e-05
459.164,1.74605e-05
459.745,2.44556e-05
460.325,3.40231e-05
460.906,4.70159e-05
461.486,6.45345e-05
462.067,8.79862e-05
462.647,0.000119156
463.228,0.000160284
463.808,0.000214163
464.389,0.000284236
464.969,0.000374706
465.55,0.000490663
466.13,0.000638203
466.71,0.000824549
467.291,0.00105818
467.871,0.00134893
468.452,0.00170809
469.032,0.00214844
469.613,0.0026843
470.193,0.00333149
470.774,0.00410724
471.354,0.00503005
471.935,0.00611942
472.515,0.00739557
473.096,0.00887903
473.676,0.0105901
474.257,0.0125485
474.837,0.0147724
475.418,0.0172781
475.998,0.0200791
476.579,0.0231856
477.159,0.0266039
477.739,0.0303357
478.32,0.034378
478.9,0.0387228
479.481,0.0433569
480.061,0.0482625
480.642,0.0534174
481.222,0.0587963
481.803,0.0643712
482.383,0.0701132
482.964,0.0759938
483.544,0.0819864
484.125,0.088068
484.705,0.094221
485.286,0.100434
485.866,0.106705
486.447,0.113037
487.027,0.119445
487.608,0.125952
488.188,0.132587
488.768,0.139388
489.349,0.146394
489.929,0.153646
490.51,0.161186
491.09,0.169047
491.671,0.177254
492.251,0.185821
492.832,0.194744
493.412,0.204
493.993,0.213546
494.573,0.223315
495.154,0.233216
495.734,0.243135
496.315,0.252936
496.895,0.262466
497.476,0.271556
498.056,0.280028
498.636,0.287697
499.217,0.294383
499.797,0.299911
500.378,0.304123
500.958,0.30688
501.539,0.308069
502.119,0.307606
502.7,0.305443
503.28,0.301566
503.861,0.295999
504.441,0.288802
505.022,0.28007
505.602,0.269928
506.183,0.258528
506.763,0.246048
507.344,0.232678
507.924,0.218622
508.505,0.204088
509.085,0.189281
509.665,0.174401
510.246,0.159637
510.826,0.145161
511.407,0.131126
511.987,0.117664
512.568,0.104884
513.148,0.0928704
513.729,0.0816855
514.309,0.0713687
514.89,0.0619389
515.47,0.0533959
516.051,0.0457235
516.631,0.0388916
517.212,0.0328591
517.792,0.0275764
518.373,0.0229879
518.953,0.0190345
519.534,0.0156553
520.114,0.0127896
520.694,0.0103785
521.275,0.00836536
521.855,0.00669748
522.436,0.00532616
523.016,0.00420719
523.597,0.003301
524.177,0.00257261
524.758,0.00199148
525.338,0.00153127
525.919,0.00116951
526.499,0.000887212
527.08,0.000668538
527.66,0.000500379
528.241,0.000372002
528.821,0.000274704
529.402,0.000201492
529.982,0.0001468
530.563,0.000106235
531.143,7.63627e-05
531.723,5.45216e-05
532.304,3.86661e-05
532.884,2.72373e-05
533.465,1.90578e-05
534.045,1.32451e-05
534.626,9.14342e-06
535.206,6.26955e-06
535.787,4.2701e-06
536.367,2.88877e-06
536.948,1.94116e-06
537.528,1.29563e-06
538.109,8.58969e-07
538.689,5.65647e-07
539.27,3.69987e-07
539.85,2.40382e-07
540.431,1.55128e-07
541.011,9.94377e-08
541.592,6.3312e-08
542.172,4.004e-08
542.752,2.51522e-08
543.333,1.56939e-08
543.913,9.72652e-09
544.494,5.98768e-09
545.074,3.66128e-09
545.655,2.22373e-09
546.235,1.34154e-09
546.816,8.03893e-10
547.396,4.78487e-10
547.977,2.82895e-10
548.557,1.66143e-10
549.138,9.69427e-11
549.718,5.62274e-11
550.299,3.24731e-11
550.879,1.87775e-11
551.46,1.10615e-11
552.04,6.97662e-12
552.621,5.26181e-12
553.201,5.39297e-12
553.781,7.43996e-12
554.362,1.20968e-11
554.942,2.0896e-11
555.523,3.66673e-11
556.103,6.43622e-11
556.684,1.12461e-10
557.264,1.95314e-10
557.845,3.36997e-10
558.425,5.77591e-10
559.006,9.83322e-10
559.586,1.66283e-09
560.167,2.79301e-09
560.747,4.65985e-09
561.328,7.72225e-09
561.908,1.27113e-08
562.489,2.0783e-08
563.069,3.37521e-08
563.649,5.44461e-08
564.23,8.72379e-08
564.81,1.38841e-07
565.391,2.19484e-07
565.971,3.44637e-07
566.552,5.37519e-07
567.132,8.3272e-07
567.713,1.28138e-06
568.293,1.95853e-06
568.874,2.97341e-06
569.454,4.48388e-06
570.035,6.71623e-06
570.615,9.99242e-06
571.196,1.47669e-05
571.776,2.16761e-05
572.357,3.16043e-05
572.937,4.57703e-05
573.518,6.58409e-05
574.098,9.40764e-05
574.678,0.000133518
575.259,0.000188222
575.839,0.000263557
576.42,0.000366567
577,0.000506413
577.581,0.000694911
578.161,0.000947169
578.742,0.00128233
579.322,0.00172442
579.903,0.00230336
580.483,0.00305599
581.064,0.00402733
581.644,0.00527175
582.225,0.00685434
582.805,0.00885217
583.386,0.0113555
583.966,0.014469
584.547,0.0183123
585.127,0.0230208
585.707,0.0287456
586.288,0.0356529
586.868,0.0439231
587.449,0.0537482
588.029,0.0653292
588.61,0.0788724
589.19,0.0945835
589.771,0.112663
590.351,0.133296
590.932,0.156649
591.512,0.182857
592.093,0.212016
592.673,0.244174
593.254,0.27932
593.834,0.31738
594.415,0.358203
594.995,0.401563
595.576,0.447147
596.156,0.494562
596.736,0.54333
597.317,0.592899
597.897,0.642644
598.478,0.691885
599.058,0.739896
599.639,0.785924
600.219,0.829209
600.8,0.869002
601.38,0.904587
601.961,0.935306
602.541,0.960573
603.122,0.979896
603.702,0.992894
604.283,0.999308
604.863,0.999008
605.444,0.992001
606.024,0.978426
606.605,0.958557
607.185,0.932783
607.765,0.901606
608.346,0.865618
608.926,0.825484
609.507,0.781925
610.087,0.735689
610.668,0.687538
611.248,0.638223
611.829,0.588467
612.409,0.538945
612.99,0.490276
613.57,0.443006
614.151,0.397605
614.731,0.35446
615.312,0.313875
615.892,0.27607
616.473,0.241187
617.053,0.209297
617.634,0.180404
618.214,0.154455
618.794,0.13135
619.375,0.110951
619.955,0.0930909
620.536,0.0775811
621.116,0.0642211
621.697,0.0528047
622.277,0.0431262
622.858,0.0349851
623.438,0.0281902
624.019,0.0225625
624.599,0.017937
625.18,0.0141639
625.76,0.0111094
626.341,0.00865513
626.921,0.00669775
627.502,0.00514822
628.082,0.0039306
628.662,0.0029808
629.243,0.00224534
629.823,0.00167997
630.404,0.00124853
630.984,0.000921649
631.565,0.000675782
632.145,0.000492177
632.726,0.000356049
633.306,0.000255841
633.887,0.000182602
634.467,0.000129453
635.048,9.11578e-05
635.628,6.376e-05
636.209,4.42972e-05
636.789,3.05687e-05
637.37,2.09532e-05
637.95,1.42659e-05
638.531,9.64761e-06
639.111,6.48058e-06
639.691,4.32396e-06
640.272,2.86564e-06
640.852,1.88641e-06
641.433,1.23346e-06
642.013,8.01095e-07
642.594,5.16795e-07
643.174,3.3115e-07
643.755,2.10769e-07
644.335,1.33248e-07
644.916,8.36733e-08
645.496,5.219e-08
646.077,3.23341e-08
646.657,1.98979e-08
647.238,1.21627e-08
647.818,7.38451e-09
648.399,4.45337e-09
648.979,2.66765e-09
649.56,1.58724e-09
650.14,9.38057e-10
650.72,5.50667e-10
651.301,3.21087e-10
651.881,1.85964e-10
652.462,1.06982e-10
653.042,6.11312e-11
653.623,3.46968e-11
654.203,1.95609e-11
654.784,1.09537e-11
655.364,6.09269e-12
655.945,3.36611e-12
656.525,1.84723e-12
657.106,1.0069e-12
657.686,5.45165e-13
658.267,2.93184e-13
658.847,1.56613e-13
659.428,8.30972e-14
660.008,4.37945e-14
660.589,2.29259e-14
661.169,1.19208e-14
661.749,6.15684e-15
662.33,3.15852e-15
662.91,1.60947e-15
663.491,8.14621e-16
664.071,4.09545e-16
664.652,2.04513e-16
665.232,1.01441e-16
665.813,4.9978e-17
666.393,2.44579e-17
666.974,1.18886e-17
667.554,5.74006e-18
668.135,2.75281e-18
668.715,1.31132e-18
669.296,6.20459e-19
669.876,2.91603e-19
670.457,1.36127e-19
671.037,6.31204e-20
671.618,2.90716e-20
672.198,1.32997e-20
672.778,6.04347e-21
673.359,2.72775e-21
673.939,1.22292e-21
674.52,5.44581e-22
675.1,2.4088e-22
675.681,1.05831e-22
676.261,4.61847e-23
676.842,2.00196e-23
677.422,8.61962e-24
678.003,3.68632e-24
678.583,1.56593e-24
679.164,6.60728e-25
679.744,2.76916e-25
680.325,1.15278e-25
680.905,4.7667e-26
681.486,1.95777e-26
682.066,7.98695e-27
682.647,3.23647e-27
683.227,1.30268e-27
683.807,5.20805e-28
684.388,2.06817e-28
684.968,8.15776e-29
685.549,3.19616e-29
686.129,1.24383e-29
686.71,4.808e-30
687.29,1.84604e-30
687.871,7.04034e-31
688.451,2.66697e-31
689.032,1.0035e-31
689.612,3.75048e-32
690.193,1.39229e-32
690.773,5.13391e-33
691.354,1.88035e-33
691.934,6.84074e-34
692.515,2.47196e-34
693.095,8.87261e-35
693.675,3.16327e-35
694.256,1.12019e-35
694.836,3.94025e-36
695.417,1.37666e-36
695.997,4.77755e-37
696.578,1.64686e-37
697.158,5.6387e-38
697.739,1.91768e-38
698.319,6.47809e-39
698.9,2.17366e-39
699.48,7.24449e-40
700.061,2.39827e-40
700.641,7.88609e-41
701.222,2.57572e-41
701.802,8.3562e-42
702.383,2.69273e-42
702.963,8.61885e-43
703.544,2.74018e-43
704.124,8.65332e-44
704.704,2.71431e-44
705.285,8.45686e-45
705.865,2.61717e-45
706.446,8.04506e-46
707.026,2.4564e-46
707.607,7.44976e-47
708.187,2.24419e-47
708.768,6.71504e-48
709.348,1.99578e-48
709.929,5.8918e-49
710.509,1.72766e-49
711.09,5.032e-50
711.67,1.45578e-50
712.251,4.18337e-51
712.831,1.19407e-51
713.412,3.38537e-52
713.992,9.53356e-53
714.573,2.66672e-53
715.153,7.40924e-54
715.733,2.04476e-54
716.314,5.60513e-55
716.894,1.52617e-55
717.475,4.12754e-56
718.055,1.1088e-56
718.636,2.95862e-57
719.216,7.84149e-58
719.797,2.06434e-58
720.377,5.39805e-59
720.958,1.40206e-59
721.538,3.61716e-60
722.119,9.26923e-61
722.699,2.35935e-61
723.28,5.96506e-62
723.86,1.49799e-62
724.441,3.73662e-63
725.021,9.25809e-64
725.4564,3.23692e-64