File: CRYSTAL-IR-RAMAN/log.PBE446328-IR.csv
E(cm-1),I
0.01,6.18221e-182
0.590473,6.60052e-181
1.17095,6.9998e-180
1.75142,7.37338e-179
2.33189,7.71473e-178
2.91237,8.01767e-177
3.49284,8.27654e-176
4.07331,8.48639e-175
4.65379,8.64311e-174
5.23426,8.74361e-173
5.81473,8.78587e-172
6.39521,8.76904e-171
6.97568,8.69346e-170
7.55615,8.56065e-169
8.13663,8.37324e-168
8.7171,8.13494e-167
9.29757,7.85033e-166
9.87804,7.5248e-165
10.4585,7.16432e-164
11.039,6.77531e-163
11.6195,6.36438e-162
12.1999,5.93822e-161
12.7804,5.50338e-160
13.3609,5.06613e-159
13.9414,4.6323e-158
14.5218,4.20717e-157
15.1023,3.79539e-156
15.6828,3.40092e-155
16.2633,3.02698e-154
16.8437,2.67606e-153
17.4242,2.34994e-152
18.0047,2.0497e-151
18.5851,1.77581e-150
19.1656,1.52819e-149
19.7461,1.30626e-148
20.3266,1.10906e-147
20.907,9.35309e-147
21.4875,7.8348e-146
22.068,6.5189e-145
22.6485,5.38758e-144
23.2289,4.42269e-143
23.8094,3.60623e-142
24.3899,2.92074e-141
24.9703,2.34966e-140
25.5508,1.87755e-139
26.1313,1.49022e-138
26.7118,1.17485e-137
27.2922,9.20003e-137
27.8727,7.15597e-136
28.4532,5.52867e-135
29.0337,4.24274e-134
29.6141,3.23404e-133
30.1946,2.4486e-132
30.7751,1.84147e-131
31.3556,1.37557e-130
31.936,1.02065e-129
32.5165,7.52213e-129
33.097,5.50655e-128
33.6774,4.00398e-127
34.2579,2.89186e-126
34.8384,2.07461e-125
35.4189,1.47832e-124
35.9993,1.04634e-123
36.5798,7.35619e-123
37.1603,5.13694e-122
37.7408,3.56312e-121
38.3212,2.45487e-120
38.9017,1.67997e-119
39.4822,1.14195e-118
40.0627,7.71017e-118
40.6431,5.17078e-117
41.2236,3.44446e-116
41.8041,2.27908e-115
42.3845,1.49786e-114
42.965,9.77813e-114
43.5455,6.34036e-113
44.126,4.08362e-112
44.7064,2.61247e-111
45.2869,1.66008e-110
45.8674,1.0478e-109
46.4479,6.56909e-109
47.0283,4.09075e-108
47.6088,2.53031e-107
48.1893,1.5546e-106
48.7698,9.48717e-106
49.3502,5.7508e-105
49.9307,3.46252e-104
50.5112,2.07076e-103
51.0916,1.2301e-102
51.6721,7.25815e-102
52.2526,4.25386e-101
52.8331,2.47637e-100
53.4135,1.43192e-99
53.994,8.22426e-99
54.5745,4.69189e-98
55.155,2.65871e-97
55.7354,1.49647e-96
56.3159,8.36643e-96
56.8964,4.64605e-95
57.4768,2.56272e-94
58.0573,1.40408e-93
58.6378,7.6411e-93
59.2183,4.13041e-92
59.7987,2.21771e-91
60.3792,1.18274e-90
60.9597,6.26534e-90
61.5402,3.29667e-89
62.1206,1.72298e-88
62.7011,8.9445e-88
63.2816,4.61218e-87
63.8621,2.36227e-86
64.4425,1.20179e-85
65.023,6.07292e-85
65.6035,3.04818e-84
66.1839,1.5197e-83
66.7644,7.52572e-83
67.3449,3.70179e-82
67.9254,1.80862e-81
68.5058,8.77724e-81
69.0863,4.23098e-80
69.6668,2.02581e-79
70.2473,9.63447e-79
70.8277,4.55125e-78
71.4082,2.13554e-77
71.9887,9.95308e-77
72.5692,4.60766e-76
73.1496,2.11874e-75
73.7301,9.67713e-75
74.3106,4.39025e-74
74.891,1.97836e-73
75.4715,8.85514e-73
76.052,3.93694e-72
76.6325,1.73858e-71
77.2129,7.62613e-71
77.7934,3.32267e-70
78.3739,1.43795e-69
78.9544,6.18119e-69
79.5348,2.63922e-68
80.1153,1.11931e-67
80.6958,4.7152e-67
81.2763,1.97298e-66
81.8567,8.20009e-66
82.4372,3.38523e-65
83.0177,1.38813e-64
83.5981,5.65387e-64
84.1786,2.28736e-63
84.7591,9.19173e-63
85.3396,3.66887e-62
85.92,1.45459e-61
86.5005,5.72828e-61
87.081,2.24068e-60
87.6615,8.70579e-60
88.2419,3.35978e-59
88.8224,1.28791e-58
89.4029,4.90382e-58
89.9833,1.85463e-57
90.5638,6.9671e-57
91.1443,2.59968e-56
91.7248,9.63524e-56
92.3052,3.54713e-55
92.8857,1.29708e-54
93.4662,4.71116e-54
94.0467,1.69966e-53
94.6271,6.09076e-53
95.2076,2.16797e-52
95.7881,7.66493e-52
96.3686,2.69176e-51
96.949,9.3894e-51
97.5295,3.25321e-50
98.11,1.11959e-49
98.6904,3.82721e-49
99.2709,1.2995e-48
99.8514,4.38273e-48
100.432,1.4682e-47
101.012,4.88541e-47
101.593,1.61469e-46
102.173,5.30091e-46
102.754,1.72856e-45
103.334,5.59877e-45
103.915,1.80125e-44
104.495,5.7561e-44
105.076,1.82707e-43
105.656,5.76046e-43
106.237,1.80398e-42
106.817,5.6115e-42
107.398,1.7338e-41
107.978,5.32101e-41
108.558,1.62204e-40
109.139,4.91137e-40
109.719,1.47712e-39
110.3,4.41269e-39
110.88,1.30938e-38
111.461,3.85921e-38
112.041,1.12981e-37
112.622,3.28539e-37
113.202,9.48943e-37
113.783,2.7225e-36
114.363,7.75832e-36
114.944,2.19605e-35
115.524,6.17431e-35
116.105,1.72429e-34
116.685,4.78303e-34
117.266,1.31786e-33
117.846,3.6067e-33
118.427,9.80446e-33
119.007,2.64734e-32
119.587,7.1002e-32
120.168,1.89149e-31
120.748,5.00508e-31
121.329,1.3155e-30
121.909,3.43435e-30
122.49,8.90575e-30
123.07,2.29388e-29
123.651,5.86873e-29
124.231,1.49139e-28
124.812,3.76452e-28
125.392,9.43851e-28
125.973,2.35055e-27
126.553,5.81446e-27
127.134,1.42864e-26
127.714,3.48665e-26
128.295,8.45217e-26
128.875,2.03517e-25
129.456,4.86752e-25
130.036,1.15634e-24
130.616,2.7286e-24
131.197,6.39537e-24
131.777,1.4889e-23
132.358,3.44301e-23
132.938,7.90831e-23
133.519,1.80428e-22
134.099,4.0888e-22
134.68,9.20368e-22
135.26,2.05779e-21
135.841,4.56997e-21
136.421,1.00809e-20
137.002,2.20881e-20
137.582,4.80718e-20
138.163,1.03919e-19
138.743,2.23139e-19
139.324,4.75912e-19
139.904,1.00821e-18
140.485,2.12154e-18
141.065,4.43428e-18
141.645,9.20596e-18
142.226,1.8984e-17
142.806,3.88848e-17
143.387,7.91125e-17
143.967,1.59876e-16
144.548,3.20919e-16
145.128,6.39854e-16
145.709,1.26718e-15
146.289,2.49271e-15
146.87,4.87053e-15
147.45,9.45267e-15
148.031,1.82224e-14
148.611,3.48924e-14
149.192,6.63635e-14
149.772,1.25372e-13
150.353,2.35259e-13
150.933,4.38494e-13
151.514,8.11812e-13
152.094,1.49286e-12
152.674,2.72683e-12
153.255,4.94732e-12
153.835,8.91568e-12
154.416,1.59592e-11
154.996,2.83755e-11
155.577,5.01127e-11
156.157,8.79075e-11
156.738,1.53171e-10
157.318,2.65095e-10
157.899,4.55721e-10
158.479,7.78163e-10
159.06,1.31982e-09
159.64,2.22348e-09
160.221,3.72069e-09
160.801,6.18426e-09
161.382,1.021e-08
161.962,1.67431e-08
162.543,2.72722e-08
163.123,4.41242e-08
163.703,7.09101e-08
164.284,1.13191e-07
164.864,1.79469e-07
165.445,2.82644e-07
166.025,4.42144e-07
166.606,6.87007e-07
167.186,1.06031e-06
167.767,1.62546e-06
168.347,2.4751e-06
168.928,3.74354e-06
169.508,5.62401e-06
170.089,8.39235e-06
170.669,1.24392e-05
171.25,1.83137e-05
171.83,2.67814e-05
172.411,3.89013e-05
172.991,5.61265e-05
173.571,8.04349e-05
174.152,0.000114497
174.732,0.000161889
175.313,0.00022736
175.893,0.000317164
176.474,0.000439468
177.054,0.000604845
177.635,0.000826864
178.215,0.00112279
178.796,0.00151438
179.376,0.00202882
179.957,0.00269977
180.537,0.00356847
181.118,0.00468503
181.698,0.00610963
182.279,0.00791391
182.859,0.0101822
183.44,0.0130126
184.02,0.0165181
184.6,0.0208271
185.181,0.0260839
185.761,0.032448
186.342,0.0400938
186.922,0.0492084
187.503,0.0599895
188.083,0.0726415
188.664,0.087371
189.244,0.104381
189.825,0.123866
190.405,0.146
190.986,0.170935
191.566,0.198783
192.147,0.229615
192.727,0.263449
193.308,0.300238
193.888,0.339866
194.469,0.382141
195.049,0.426788
195.629,0.47345
196.21,0.521686
196.79,0.570976
197.371,0.620726
197.951,0.670278
198.532,0.718925
199.112,0.765923
199.693,0.810514
200.273,0.85194
200.854,0.889468
201.434,0.922413
202.015,0.950154
202.595,0.972155
203.176,0.987985
203.756,0.997329
204.337,1.0
204.917,0.995944
205.498,0.985242
206.078,0.968109
206.658,0.944885
207.239,0.916024
207.819,0.88208
208.4,0.84369
208.98,0.80155
209.561,0.7564
210.141,0.709
210.722,0.660106
211.302,0.610457
211.883,0.56075
212.463,0.511631
213.044,0.463679
213.624,0.4174
214.205,0.373215
214.785,0.331467
215.366,0.292412
215.946,0.256225
216.527,0.223009
217.107,0.192795
217.687,0.165556
218.268,0.14121
218.848,0.119635
219.429,0.100676
220.009,0.0841524
220.59,0.0698683
221.17,0.0576192
221.751,0.0471984
222.331,0.0384027
222.912,0.0310362
223.492,0.0249143
224.073,0.0198656
224.653,0.0157336
225.234,0.0123774
225.814,0.00967169
226.395,0.0075067
226.975,0.00578721
227.556,0.00443162
228.136,0.00337077
228.716,0.00254665
229.297,0.0019111
229.877,0.00142452
230.458,0.0010547
231.038,0.000775643
231.619,0.00056659
232.199,0.000411101
232.78,0.000296279
233.36,0.000212094
233.941,0.000150809
234.521,0.000106512
235.102,7.47216e-05
235.682,5.20674e-05
236.263,3.60378e-05
236.843,2.47756e-05
237.424,1.69186e-05
238.004,1.14756e-05
238.584,7.73149e-06
239.165,5.17395e-06
239.745,3.43918e-06
240.326,2.27071e-06
240.906,1.48916e-06
241.487,9.70046e-07
242.067,6.27651e-07
242.648,4.03383e-07
243.228,2.57507e-07
243.809,1.63281e-07
244.389,1.02838e-07
244.97,6.43349e-08
245.55,3.99772e-08
246.131,2.46746e-08
246.711,1.51274e-08
247.292,9.21189e-09
247.872,5.57195e-09
248.453,3.34764e-09
249.033,1.99777e-09
249.613,1.1842e-09
250.194,6.97229e-10
250.774,4.07756e-10
251.355,2.36864e-10
251.935,1.36669e-10
252.516,7.83278e-11
253.096,4.45897e-11
253.677,2.52131e-11
254.257,1.41609e-11
254.838,7.90004e-12
255.418,4.37765e-12
255.999,2.4095e-12
256.579,1.31731e-12
257.16,7.15372e-13
257.74,3.85907e-13
258.321,2.06838e-13
258.901,1.10236e-13
259.482,5.85923e-14
260.062,3.1399e-14
260.642,1.76197e-14
261.223,1.1549e-14
261.803,1.06228e-14
262.384,1.44145e-14
262.964,2.44517e-14
263.545,4.47831e-14
264.125,8.34865e-14
264.706,1.55632e-13
265.286,2.88691e-13
265.867,5.3217e-13
266.447,9.74531e-13
267.028,1.77267e-12
267.608,3.20287e-12
268.189,5.74809e-12
268.769,1.02467e-11
269.35,1.81432e-11
269.93,3.19094e-11
270.511,5.57438e-11
271.091,9.67271e-11
271.671,1.66714e-10
272.252,2.85411e-10
272.832,4.85336e-10
273.413,8.19762e-10
273.993,1.37533e-09
274.574,2.29191e-09
275.154,3.79369e-09
275.735,6.23734e-09
276.315,1.01862e-08
276.896,1.65232e-08
277.476,2.66228e-08
278.057,4.26073e-08
278.637,6.77312e-08
279.218,1.06946e-07
279.798,1.67733e-07
280.379,2.61301e-07
280.959,4.04333e-07
281.54,6.21456e-07
282.12,9.48756e-07
282.7,1.43871e-06
283.281,2.16702e-06
283.861,3.2421e-06
284.442,4.81797e-06
285.022,7.11172e-06
285.603,1.0427e-05
286.183,1.5185e-05
286.764,2.19658e-05
287.344,3.1561e-05
287.925,4.5043e-05
288.505,6.38525e-05
289.086,8.99088e-05
289.666,0.000125747
290.247,0.000174691
290.827,0.000241053
291.408,0.000330392
291.988,0.000449801
292.569,0.000608252
293.149,0.000816997
293.729,0.00109001
294.31,0.00144449
294.89,0.00190139
295.471,0.002486
296.051,0.00322853
296.632,0.00416467
297.212,0.00533618
297.793,0.00679132
298.373,0.0085852
298.954,0.01078
299.534,0.0134451
300.115,0.0166564
300.695,0.020496
301.276,0.0250514
301.856,0.0304137
302.437,0.0366757
303.017,0.04393
303.597,0.0522658
304.178,0.0617657
304.758,0.072502
305.339,0.0845329
305.919,0.0978983
306.5,0.112615
307.08,0.128675
307.661,0.146037
308.241,0.164629
308.822,0.184341
309.402,0.205027
309.983,0.226503
310.563,0.248547
311.144,0.270906
311.724,0.293292
312.305,0.315396
312.885,0.336887
313.466,0.357427
314.046,0.376671
314.626,0.394286
315.207,0.409953
315.787,0.423379
316.368,0.434308
316.948,0.442527
317.529,0.447873
318.109,0.45024
318.69,0.449579
319.27,0.445903
319.851,0.439288
320.431,0.429864
321.012,0.417817
321.592,0.40338
322.173,0.386826
322.753,0.368461
323.334,0.34861
323.914,0.327613
324.495,0.305813
325.075,0.283546
325.655,0.261135
326.236,0.23888
326.816,0.217054
327.397,0.195898
327.977,0.175616
328.558,0.156377
329.138,0.13831
329.719,0.121509
330.299,0.106032
330.88,0.0919046
331.46,0.0791246
332.041,0.0676642
332.621,0.0574752
333.202,0.0484925
333.782,0.0406389
334.363,0.0338285
334.943,0.0279703
335.524,0.0229713
336.104,0.018739
336.684,0.0151838
337.265,0.0122204
337.845,0.0097694
338.426,0.0077575
339.006,0.00611856
339.587,0.00479347
340.167,0.00373013
340.748,0.00288317
341.328,0.00221356
341.909,0.00168805
342.489,0.00127865
343.07,0.000962039
343.65,0.000718962
344.231,0.000533695
344.811,0.000393508
345.392,0.000288195
345.972,0.00020965
346.553,0.000151487
347.133,0.000108725
347.713,7.75094e-05
348.294,5.48851e-05
348.874,3.86036e-05
349.455,2.69696e-05
350.035,1.87152e-05
350.616,1.28999e-05
351.196,8.83189e-06
351.777,6.00612e-06
352.357,4.05702e-06
352.938,2.72203e-06
353.518,1.81407e-06
354.099,1.20084e-06
354.679,7.89575e-07
355.26,5.15673e-07
355.84,3.34527e-07
356.421,2.1556e-07
357.001,1.37975e-07
357.582,8.77329e-08
358.162,5.54314e-08
358.742,3.48224e-08
359.323,2.17891e-08
359.903,1.36457e-08
360.484,8.66372e-09
361.064,5.7568e-09
361.645,4.27644e-09
362.225,3.88692e-09
362.806,4.49934e-09
363.386,6.25408e-09
363.967,9.54867e-09
364.547,1.51158e-08
365.128,2.41644e-08
365.708,3.86053e-08
366.289,6.13985e-08
366.869,9.70716e-08
367.45,1.52485e-07
368.03,2.37947e-07
368.61,3.68827e-07
369.191,5.67864e-07
369.771,8.68444e-07
370.352,1.31921e-06
370.932,1.99048e-06
371.513,2.98316e-06
372.093,4.44088e-06
372.674,6.5665e-06
373.254,9.64434e-06
373.835,1.40697e-05
374.415,2.03877e-05
374.996,2.93446e-05
375.576,4.19526e-05
376.157,5.9575e-05
376.737,8.40316e-05
377.318,0.000117732
377.898,0.00016384
378.479,0.000226473
379.059,0.000310949
379.639,0.000424066
380.22,0.000574449
380.8,0.000772934
381.381,0.00103302
381.961,0.00137134
382.542,0.00180824
383.122,0.00236832
383.703,0.00308105
384.283,0.00398135
384.864,0.00511016
385.444,0.00651496
386.025,0.00825017
386.605,0.0103774
387.186,0.0129654
387.766,0.01609
388.347,0.0198335
388.927,0.0242839
389.508,0.0295331
390.088,0.0356757
390.668,0.0428065
391.249,0.0510177
391.829,0.0603955
392.41,0.0710169
392.99,0.0829454
393.571,0.0962268
394.151,0.110885
394.732,0.126918
395.312,0.144294
395.893,0.162946
396.473,0.182774
397.054,0.203638
397.634,0.225359
398.215,0.247723
398.795,0.270476
399.376,0.293337
399.956,0.315992
400.537,0.338111
401.117,0.359349
401.697,0.379356
402.278,0.397786
402.858,0.414311
403.439,0.428624
404.019,0.440453
404.6,0.449569
405.18,0.455791
405.761,0.458996
406.341,0.459119
406.922,0.456158
407.502,0.450172
408.083,0.44128
408.663,0.429659
409.244,0.415534
409.824,0.399175
410.405,0.380884
410.985,0.36099
411.566,0.339838
412.146,0.317776
412.726,0.29515
413.307,0.272295
413.887,0.249522
414.468,0.227118
415.048,0.205337
415.629,0.184398
416.209,0.164482
416.79,0.145732
417.37,0.128252
417.951,0.11211
418.531,0.0973423
419.112,0.0839519
419.692,0.0719172
420.273,0.0611939
420.853,0.0517198
421.434,0.0434189
422.014,0.0362055
422.595,0.0299877
423.175,0.0246709
423.755,0.0201605
424.336,0.016364
424.916,0.0131932
425.497,0.0105654
426.077,0.00840417
426.658,0.00664013
427.238,0.00521113
427.819,0.00406219
428.399,0.0031453
428.98,0.002419
429.56,0.00184793
430.141,0.00140219
430.721,0.00105682
431.302,0.000791169
431.882,0.000588316
432.463,0.000434536
433.043,0.000318797
433.623,0.000232314
434.204,0.000168155
434.784,0.000120898
435.365,8.63374e-05
435.945,6.12426e-05
436.526,4.315e-05
437.106,3.01983e-05
437.687,2.09921e-05
438.267,1.44945e-05
438.848,9.9409e-06
439.428,6.77205e-06
440.009,4.58234e-06
440.589,3.07984e-06
441.17,2.05609e-06
441.75,1.36342e-06
442.331,8.9803e-07
442.911,5.87523e-07
443.492,3.81797e-07
444.072,2.46441e-07
444.652,1.58004e-07
445.233,1.00622e-07
445.813,6.36495e-08
446.394,3.99916e-08
446.974,2.49584e-08
447.555,1.54716e-08
448.135,9.52643e-09
448.716,5.82636e-09
449.296,3.53947e-09
449.877,2.13576e-09
450.457,1.28008e-09
451.038,7.62077e-10
451.618,4.50643e-10
452.199,2.64691e-10
452.779,1.54426e-10
453.36,8.94896e-11
453.94,5.15109e-11
454.521,2.9451e-11
455.101,1.67253e-11
455.681,9.43451e-12
456.262,5.28615e-12
456.842,2.94193e-12
457.423,1.62629e-12
458.003,8.92974e-13
458.584,4.87026e-13
459.164,2.63839e-13
459.745,1.41971e-13
460.325,7.58807e-14
460.906,4.02844e-14
461.486,2.12431e-14
462.067,1.11268e-14
462.647,5.7889e-15
463.228,2.99155e-15
463.808,1.53557e-15
464.389,7.82915e-16
464.969,3.96491e-16
465.55,1.99447e-16
466.13,9.96535e-17
466.71,4.94575e-17
467.291,2.43806e-17
467.871,1.1938e-17
468.452,5.80617e-18
469.032,2.80493e-18
469.613,1.34595e-18
470.193,6.41515e-19
470.774,3.0371e-19
471.354,1.42819e-19
471.935,6.67089e-20
472.515,3.09497e-20
473.096,1.42627e-20
473.676,6.5286e-21
474.257,2.96833e-21
474.837,1.34053e-21
475.418,6.01335e-22
475.998,2.67934e-22
476.579,1.18581e-22
477.159,5.21282e-23
477.739,2.27617e-23
478.32,9.8721e-24
478.9,4.25293e-24
479.481,1.81987e-24
480.061,7.73508e-25
480.642,3.2656e-25
481.222,1.36941e-25
481.803,5.70401e-26
482.383,2.35993e-26
482.964,9.69817e-27
483.544,3.95872e-27
484.125,1.60507e-27
484.705,6.46405e-28
485.286,2.58577e-28
485.866,1.02742e-28
486.447,4.05489e-29
487.027,1.58958e-29
487.608,6.18958e-30
488.188,2.39394e-30
488.768,9.19681e-31
489.349,3.50942e-31
489.929,1.33017e-31
490.51,5.00784e-32
491.09,1.8727e-32
491.671,6.956e-33
492.251,2.5664e-33
492.832,9.40505e-34
493.412,3.42351e-34
493.993,1.23782e-34
494.573,4.44543e-35
495.154,1.58579e-35
495.734,5.61887e-36
496.315,1.97754e-36
496.895,6.91317e-37
497.476,2.4005e-37
498.056,8.27939e-38
498.636,2.83641e-38
499.217,9.6519e-39
499.797,3.26235e-39
500.378,1.09527e-39
500.958,3.65245e-40
501.539,1.20982e-40
502.119,3.98045e-41
502.7,1.30081e-41
503.28,4.22253e-42
503.861,1.36145e-42
504.441,4.3602e-43
505.022,1.38702e-43
505.602,4.38261e-44
506.183,1.37549e-44
506.763,4.28799e-45
507.344,1.32777e-45
507.924,4.08382e-46
508.505,1.24762e-46
509.085,3.78594e-47
509.665,1.14113e-47
510.246,3.41644e-48
510.826,1.01597e-48
511.407,3.001e-49
511.987,8.80486e-50
512.568,2.56597e-50
513.148,7.42772e-51
513.729,2.13566e-51
514.309,6.09932e-52
514.89,1.73023e-52
515.47,4.87529e-53
516.051,1.36449e-53
516.631,3.79326e-54
517.212,1.04744e-54
517.792,2.87288e-55
518.373,7.82674e-56
518.953,2.11796e-56
519.534,5.6928e-57
520.114,1.51988e-57
520.694,4.03055e-58
521.275,1.06168e-58
521.855,2.77777e-59
522.436,7.21892e-60
523.016,1.86346e-60
523.597,4.77797e-61
524.177,1.21686e-61
524.758,3.07828e-62
525.338,7.73482e-63
525.919,1.93048e-63
526.499,4.7858e-64
527.08,1.17847e-64
527.66,2.88239e-65
528.241,7.00263e-66
528.821,1.68983e-66
529.402,4.0504e-67
529.982,9.64333e-68
530.563,2.28049e-68
531.143,5.35678e-69
531.723,1.24983e-69
532.304,2.89651e-70
532.884,6.6676e-71
533.465,1.52454e-71
534.045,3.46242e-72
534.626,7.81078e-73
535.206,1.75018e-73
535.787,3.89533e-74
536.367,8.61151e-75
536.948,1.89098e-75
537.528,4.12448e-76
538.109,8.9356e-77
538.689,1.92288e-77
539.27,4.11011e-78
539.85,8.72626e-79
540.431,1.84025e-79
541.011,3.85476e-80
541.592,8.02032e-81
542.172,1.65752e-81
542.752,3.40252e-82
543.333,6.9377e-83
543.913,1.40509e-83
544.494,2.8266e-84
545.074,5.64805e-85
545.655,1.121e-85
546.235,2.20997e-86
546.816,4.32754e-87
547.396,8.41722e-88
547.977,1.62618e-88
548.557,3.12064e-89
549.138,5.94828e-90
549.718,1.12619e-90
550.299,2.1179e-91
550.879,3.95615e-92
551.46,7.3403e-93
552.04,1.35278e-93
552.621,2.47637e-94
553.201,4.50273e-95
553.781,8.13222e-96
554.362,1.45887e-96
554.942,2.59954e-97
555.523,4.60098e-98
556.103,8.08868e-99
556.684,1.41247e-99
557.264,2.44992e-100
557.845,4.22083e-101
558.425,7.22301e-102
559.006,1.22776e-102
559.586,2.0729e-103
560.167,3.47631e-104
560.747,5.79071e-105
561.328,9.58117e-106
561.908,1.57463e-106
562.489,2.57047e-107
563.069,4.16791e-108
563.649,6.71272e-109
564.23,1.07387e-109
564.81,1.70639e-110
565.391,2.69326e-111
565.971,4.22231e-112
566.552,6.57502e-113
567.132,1.01699e-113
567.713,1.56246e-114
568.293,2.38438e-115
568.874,3.61423e-116
569.454,5.44162e-117
570.035,8.13793e-118
570.615,1.20885e-118
571.196,1.78364e-119
571.776,2.61404e-120
572.357,3.80532e-121
572.937,5.5023e-122
573.518,7.9026e-123
574.098,1.12738e-123
574.678,1.5975e-124
575.259,2.24847e-125
575.839,3.14345e-126
576.42,4.36515e-127
577,6.02094e-128
577.581,8.24904e-129
578.161,1.12258e-129
578.742,1.5174e-130
579.322,2.03732e-131
579.903,2.71702e-132
580.483,3.59913e-133
581.064,4.73562e-134
581.644,6.18912e-135
582.225,8.03441e-136
582.805,1.03598e-136
583.386,1.32686e-137
583.966,1.68799e-138
584.547,2.13299e-139
585.127,2.6772e-140
585.707,3.33768e-141
586.288,4.13317e-142
586.868,5.08388e-143
587.449,6.21127e-144
588.029,7.5377e-145
588.61,9.08595e-146
589.19,1.08787e-146
589.771,1.29376e-147
590.351,1.52829e-148
590.932,1.7932e-149
591.512,2.08991e-150
592.093,2.41935e-151
592.673,2.78192e-152
593.254,3.17733e-153
593.834,3.60457e-154
594.415,4.06179e-155
594.995,4.54627e-156
595.576,5.05437e-157
596.156,5.5815e-158
596.736,6.12222e-159
597.317,6.67022e-160
597.897,7.21846e-161
598.478,7.75929e-162
599.058,8.28463e-163
599.639,8.78612e-164
600.219,9.25539e-165
600.8,9.68424e-166
601.38,1.00649e-166
601.961,1.03903e-167
602.541,1.06541e-168
603.122,1.08513e-169
603.702,1.09779e-170
604.283,1.10314e-171
604.863,1.10107e-172
605.444,1.09162e-173
606.024,1.07498e-174
606.605,1.05149e-175
607.185,1.0216e-176
607.765,9.859e-178
608.346,9.45054e-179
608.926,8.99816e-180
609.507,8.50989e-181
610.087,7.99406e-182
610.668,7.45907e-183
611.248,6.91313e-184
611.829,6.36412e-185
612.409,5.81936e-186
612.99,5.28549e-187
613.57,4.76835e-188
614.151,4.27292e-189
614.731,3.80325e-190
615.312,3.36247e-191
615.892,2.95281e-192
616.473,2.57564e-193
617.053,2.23156e-194
617.634,1.92046e-195
618.214,1.64163e-196
618.794,1.39385e-197
619.375,1.17553e-198
619.955,9.84743e-200
620.536,8.19381e-201
621.116,6.77208e-202
621.697,5.55945e-203
622.277,4.5333e-204
622.858,3.67173e-205
623.438,2.95393e-206
624.019,2.36049e-207
624.599,1.87361e-208
625.18,1.47716e-209
625.76,1.15678e-210
626.341,8.99801e-212
626.921,6.9521e-213
627.502,5.33529e-214
628.082,4.067e-215
628.662,3.07938e-216
629.243,2.31593e-217
629.823,1.73006e-218
630.404,1.28372e-219
630.984,9.46134e-221
631.565,6.92641e-222
632.145,5.0366e-223
632.726,3.6378e-224
633.306,2.60984e-225
633.887,1.85979e-226
634.467,1.31639e-227
635.048,9.25509e-229
635.628,6.46323e-230
636.209,4.48323e-231
636.789,3.08892e-232
637.37,2.11395e-233
637.95,1.437e-234
638.531,9.70269e-236
639.111,6.5073e-237
639.691,4.33493e-238
640.272,2.86838e-239
640.852,1.88524e-240
641.433,1.23074e-241
642.013,7.98072e-243
642.594,5.14032e-244
643.174,3.28861e-245
643.755,2.08981e-246
644.335,1.31909e-247
644.916,8.27021e-249
645.496,5.15028e-250
646.077,3.1858e-251
646.657,1.9574e-252
647.238,1.19458e-253
647.818,7.2414e-255
648.399,4.36018e-256
648.979,2.60771e-257
649.56,1.54912e-258
650.14,9.14087e-260
650.72,5.35749e-261
651.301,3.11896e-262
651.881,1.80356e-263
652.462,1.03592e-264
653.042,5.91006e-266
653.623,3.34914e-267
654.203,1.88516e-268
654.784,1.05399e-269
655.364,5.85323e-271
655.945,3.22871e-272
656.525,1.76904e-273
657.106,9.62759e-275
657.686,5.20441e-276
658.267,2.79446e-277
658.847,1.49039e-278
659.428,7.89538e-280
660.008,4.15451e-281
660.589,2.1714e-282
661.169,1.12729e-283
661.749,5.81301e-285
662.33,2.97743e-286
662.91,1.5148e-287
663.491,7.65494e-289
664.071,3.8424e-290
664.652,1.91574e-291
665.232,9.4873e-293
665.813,4.66684e-294
666.393,2.28022e-295
666.974,1.10663e-296
667.554,5.33461e-298
668.135,2.55432e-299
668.715,1.21485e-300
669.296,5.73908e-302
669.876,2.69299e-303
670.457,1.25517e-304
671.037,5.81088e-306
671.618,2.67211e-307
672.198,1.22051e-308
672.778,5.53733e-310
673.359,2.49536e-311
673.939,1.11697e-312
674.52,4.96615e-314
675.1,2.19317e-315
675.681,9.62052e-317
676.261,4.19177e-318
676.842,1.81416e-319
677.422,7.8e-321
678.003,3.36e-322
678.583,1.5e-323
679.164,0.0
679.744,0.0
680.325,0.0
680.905,0.0
681.486,0.0
682.066,0.0
682.647,0.0
683.227,0.0
683.807,0.0
684.388,0.0
684.968,0.0
685.549,0.0
686.129,0.0
686.71,0.0
687.29,0.0
687.871,0.0
688.451,0.0
689.032,0.0
689.612,0.0
690.193,0.0
690.773,0.0
691.354,0.0
691.934,0.0
692.515,0.0
693.095,0.0
693.675,0.0
694.256,0.0
694.836,0.0
695.417,0.0
695.997,0.0
696.578,0.0
697.158,0.0
697.739,0.0
698.319,0.0
698.9,0.0
699.48,0.0
700.061,0.0
700.641,0.0
701.222,0.0
701.802,0.0
702.383,0.0
702.963,0.0
703.544,0.0
704.124,0.0
704.704,0.0
705.285,0.0
705.865,0.0
706.446,0.0
707.026,0.0
707.607,0.0
708.187,0.0
708.768,0.0
709.348,0.0
709.929,0.0
710.509,0.0
711.09,0.0
711.67,0.0
712.251,0.0
712.831,0.0
713.412,0.0
713.992,0.0
714.573,0.0
715.153,0.0
715.733,0.0
716.314,0.0
716.894,0.0
717.475,0.0
718.055,0.0
718.636,0.0
719.216,0.0
719.797,0.0
720.377,0.0
720.958,0.0
721.538,0.0
722.119,0.0
722.699,0.0
723.28,0.0
723.86,0.0
724.441,0.0
725.021,0.0
725.4564,0.0