File: CRYSTAL-IR-RAMAN/MgO.log-IR.csv
E(cm-1),I
0.01,0.0
0.402316,0.0
0.794632,0.0
1.18695,0.0
1.57926,0.0
1.97158,0.0
2.3639,0.0
2.75621,0.0
3.14853,0.0
3.54084,0.0
3.93316,0.0
4.32548,0.0
4.71779,0.0
5.11011,0.0
5.50243,0.0
5.89474,0.0
6.28706,0.0
6.67937,0.0
7.07169,0.0
7.46401,0.0
7.85632,0.0
8.24864,0.0
8.64095,0.0
9.03327,0.0
9.42559,0.0
9.8179,0.0
10.2102,0.0
10.6025,0.0
10.9949,0.0
11.3872,0.0
11.7795,0.0
12.1718,0.0
12.5641,0.0
12.9564,0.0
13.3487,0.0
13.7411,0.0
14.1334,0.0
14.5257,0.0
14.918,0.0
15.3103,0.0
15.7026,0.0
16.095,0.0
16.4873,0.0
16.8796,0.0
17.2719,0.0
17.6642,0.0
18.0565,0.0
18.4489,0.0
18.8412,0.0
19.2335,0.0
19.6258,0.0
20.0181,0.0
20.4104,0.0
20.8028,0.0
21.1951,0.0
21.5874,0.0
21.9797,0.0
22.372,0.0
22.7643,0.0
23.1566,0.0
23.549,0.0
23.9413,0.0
24.3336,0.0
24.7259,0.0
25.1182,0.0
25.5105,0.0
25.9029,0.0
26.2952,0.0
26.6875,0.0
27.0798,0.0
27.4721,0.0
27.8644,0.0
28.2568,0.0
28.6491,0.0
29.0414,0.0
29.4337,0.0
29.826,0.0
30.2183,0.0
30.6107,0.0
31.003,0.0
31.3953,0.0
31.7876,0.0
32.1799,0.0
32.5722,0.0
32.9646,0.0
33.3569,0.0
33.7492,0.0
34.1415,0.0
34.5338,0.0
34.9261,0.0
35.3184,0.0
35.7108,0.0
36.1031,0.0
36.4954,0.0
36.8877,0.0
37.28,0.0
37.6723,0.0
38.0647,0.0
38.457,0.0
38.8493,0.0
39.2416,0.0
39.6339,0.0
40.0262,0.0
40.4186,0.0
40.8109,0.0
41.2032,0.0
41.5955,0.0
41.9878,0.0
42.3801,0.0
42.7725,0.0
43.1648,0.0
43.5571,0.0
43.9494,0.0
44.3417,0.0
44.734,0.0
45.1264,0.0
45.5187,0.0
45.911,0.0
46.3033,0.0
46.6956,0.0
47.0879,0.0
47.4802,0.0
47.8726,0.0
48.2649,0.0
48.6572,0.0
49.0495,0.0
49.4418,0.0
49.8341,0.0
50.2265,0.0
50.6188,0.0
51.0111,0.0
51.4034,0.0
51.7957,0.0
52.188,0.0
52.5804,0.0
52.9727,0.0
53.365,0.0
53.7573,0.0
54.1496,0.0
54.5419,0.0
54.9343,0.0
55.3266,0.0
55.7189,0.0
56.1112,0.0
56.5035,0.0
56.8958,0.0
57.2881,0.0
57.6805,0.0
58.0728,0.0
58.4651,0.0
58.8574,0.0
59.2497,0.0
59.642,0.0
60.0344,0.0
60.4267,0.0
60.819,0.0
61.2113,0.0
61.6036,0.0
61.9959,0.0
62.3883,0.0
62.7806,0.0
63.1729,0.0
63.5652,0.0
63.9575,0.0
64.3498,0.0
64.7422,0.0
65.1345,0.0
65.5268,0.0
65.9191,0.0
66.3114,0.0
66.7037,0.0
67.0961,0.0
67.4884,0.0
67.8807,0.0
68.273,0.0
68.6653,0.0
69.0576,0.0
69.4499,0.0
69.8423,0.0
70.2346,0.0
70.6269,0.0
71.0192,0.0
71.4115,0.0
71.8038,0.0
72.1962,0.0
72.5885,0.0
72.9808,0.0
73.3731,0.0
73.7654,0.0
74.1577,0.0
74.5501,0.0
74.9424,0.0
75.3347,0.0
75.727,0.0
76.1193,0.0
76.5116,0.0
76.904,0.0
77.2963,0.0
77.6886,0.0
78.0809,0.0
78.4732,0.0
78.8655,0.0
79.2579,0.0
79.6502,0.0
80.0425,0.0
80.4348,0.0
80.8271,0.0
81.2194,0.0
81.6117,0.0
82.0041,0.0
82.3964,0.0
82.7887,0.0
83.181,0.0
83.5733,0.0
83.9656,0.0
84.358,0.0
84.7503,0.0
85.1426,0.0
85.5349,0.0
85.9272,0.0
86.3195,0.0
86.7119,0.0
87.1042,0.0
87.4965,0.0
87.8888,0.0
88.2811,0.0
88.6734,0.0
89.0658,0.0
89.4581,0.0
89.8504,0.0
90.2427,0.0
90.635,0.0
91.0273,0.0
91.4197,0.0
91.812,0.0
92.2043,0.0
92.5966,0.0
92.9889,0.0
93.3812,0.0
93.7735,0.0
94.1659,0.0
94.5582,0.0
94.9505,0.0
95.3428,0.0
95.7351,0.0
96.1274,0.0
96.5198,0.0
96.9121,0.0
97.3044,0.0
97.6967,0.0
98.089,0.0
98.4813,0.0
98.8737,0.0
99.266,0.0
99.6583,0.0
100.051,0.0
100.443,0.0
100.835,0.0
101.228,0.0
101.62,0.0
102.012,0.0
102.405,0.0
102.797,0.0
103.189,0.0
103.581,0.0
103.974,0.0
104.366,0.0
104.758,0.0
105.151,0.0
105.543,0.0
105.935,0.0
106.328,0.0
106.72,0.0
107.112,0.0
107.505,0.0
107.897,0.0
108.289,0.0
108.682,0.0
109.074,0.0
109.466,0.0
109.859,0.0
110.251,0.0
110.643,0.0
111.035,0.0
111.428,0.0
111.82,0.0
112.212,0.0
112.605,0.0
112.997,0.0
113.389,0.0
113.782,0.0
114.174,0.0
114.566,0.0
114.959,0.0
115.351,0.0
115.743,0.0
116.136,0.0
116.528,0.0
116.92,0.0
117.313,0.0
117.705,0.0
118.097,0.0
118.489,0.0
118.882,0.0
119.274,0.0
119.666,0.0
120.059,0.0
120.451,0.0
120.843,0.0
121.236,0.0
121.628,0.0
122.02,0.0
122.413,0.0
122.805,0.0
123.197,0.0
123.59,0.0
123.982,0.0
124.374,0.0
124.767,0.0
125.159,0.0
125.551,0.0
125.943,0.0
126.336,0.0
126.728,0.0
127.12,0.0
127.513,0.0
127.905,0.0
128.297,0.0
128.69,0.0
129.082,0.0
129.474,0.0
129.867,0.0
130.259,0.0
130.651,0.0
131.044,0.0
131.436,0.0
131.828,0.0
132.221,0.0
132.613,0.0
133.005,0.0
133.397,0.0
133.79,0.0
134.182,0.0
134.574,0.0
134.967,0.0
135.359,0.0
135.751,0.0
136.144,4.4e-323
136.536,3.66e-322
136.928,3.11e-321
137.321,2.614e-320
137.713,2.19286e-319
138.105,1.83395e-318
138.498,1.529062e-317
138.89,1.27094e-316
139.282,1.05314e-315
139.675,8.699883e-315
140.067,7.16477e-314
140.459,5.8824e-313
140.851,4.81471e-312
141.244,3.9287e-311
141.636,3.19588e-310
142.028,2.59176e-309
142.421,2.09538e-308
142.813,1.68886e-307
143.205,1.35702e-306
143.598,1.08704e-305
143.99,8.68092e-305
144.382,6.91113e-304
144.775,5.48524e-303
145.167,4.34016e-302
145.559,3.42357e-301
145.952,2.69225e-300
146.344,2.11064e-299
146.736,1.64959e-298
147.129,1.28529e-297
147.521,9.98368e-297
147.913,7.73112e-296
148.305,5.96839e-295
148.698,4.59341e-294
149.09,3.52433e-293
149.482,2.69576e-292
149.875,2.05565e-291
150.267,1.56271e-290
150.659,1.18433e-289
151.052,8.94808e-289
151.444,6.73984e-288
151.836,5.06096e-287
152.229,3.78861e-286
152.621,2.82741e-285
153.013,2.10359e-284
153.406,1.56026e-283
153.798,1.15371e-282
154.19,8.50468e-282
154.583,6.25005e-281
154.975,4.57901e-280
155.367,3.34444e-279
155.759,2.43522e-278
156.152,1.76773e-277
156.544,1.27925e-276
156.936,9.22911e-276
157.329,6.63785e-275
157.721,4.75946e-274
158.113,3.40213e-273
158.506,2.42442e-272
158.898,1.72237e-271
159.29,1.21986e-270
159.683,8.61303e-270
160.075,6.06268e-269
160.467,4.25439e-268
160.86,2.97627e-267
161.252,2.07573e-266
161.644,1.44322e-265
162.037,1.00036e-264
162.429,6.91266e-264
162.821,4.76208e-263
163.213,3.27047e-262
163.606,2.23917e-261
163.998,1.52837e-260
164.39,1.04e-259
164.783,7.05503e-259
165.175,4.77121e-258
165.567,3.21678e-257
165.96,2.16211e-256
166.352,1.44876e-255
166.744,9.67786e-255
167.137,6.44503e-254
167.529,4.27892e-253
167.921,2.83208e-252
168.314,1.8687e-251
168.706,1.22925e-250
169.098,8.06121e-250
169.491,5.27017e-249
169.883,3.43488e-248
170.275,2.23184e-247
170.668,1.44569e-246
171.06,9.33584e-246
171.452,6.01026e-245
171.844,3.85742e-244
172.237,2.4681e-243
172.629,1.57432e-242
173.021,1.00112e-241
173.414,6.3466e-241
173.806,4.01107e-240
174.198,2.52721e-239
174.591,1.5874e-238
174.983,9.94021e-238
175.375,6.20536e-237
175.768,3.8619e-236
176.16,2.39607e-235
176.552,1.48204e-234
176.945,9.1387e-234
177.337,5.61787e-233
177.729,3.44288e-232
178.122,2.10346e-231
178.514,1.28118e-230
178.906,7.7795e-230
179.298,4.70928e-229
179.691,2.84198e-228
180.083,1.70982e-227
180.475,1.02551e-226
180.868,6.13193e-226
181.26,3.65524e-225
181.652,2.17219e-224
182.045,1.28689e-223
182.437,7.60064e-223
182.829,4.47529e-222
183.222,2.62697e-221
183.614,1.53728e-220
184.006,8.96836e-220
184.399,5.21599e-219
184.791,3.02429e-218
185.183,1.74813e-217
185.576,1.00736e-216
185.968,5.78713e-216
186.36,3.31438e-215
186.752,1.89236e-214
187.145,1.07714e-213
187.537,6.11222e-213
187.929,3.45773e-212
188.322,1.95005e-211
188.714,1.09639e-210
189.106,6.14533e-210
189.499,3.43392e-209
189.891,1.91292e-208
190.283,1.06235e-207
190.676,5.88169e-207
191.068,3.24638e-206
191.46,1.78632e-205
191.853,9.79902e-205
192.245,5.35882e-204
192.637,2.92158e-203
193.03,1.58793e-202
193.422,8.60413e-202
193.814,4.64778e-201
194.206,2.50293e-200
194.599,1.34373e-199
194.991,7.19187e-199
195.383,3.83736e-198
195.776,2.04121e-197
196.168,1.08244e-196
196.56,5.72251e-196
196.953,3.01599e-195
197.345,1.58467e-194
197.737,8.30057e-194
198.13,4.33453e-193
198.522,2.25651e-192
198.914,1.17111e-191
199.307,6.05928e-191
199.699,3.12541e-190
200.091,1.60715e-189
200.484,8.23888e-189
200.876,4.2106e-188
201.268,2.14527e-187
201.66,1.08964e-186
202.053,5.51758e-186
202.445,2.78533e-185
202.837,1.40174e-184
203.23,7.0327e-184
203.622,3.51755e-183
204.014,1.75396e-182
204.407,8.71895e-182
204.799,4.32087e-181
205.191,2.13472e-180
205.584,1.05141e-179
205.976,5.16262e-179
206.368,2.52714e-178
206.761,1.23325e-177
207.153,5.99981e-177
207.545,2.90996e-176
207.938,1.40701e-175
208.33,6.78224e-175
208.722,3.2592e-174
209.114,1.5614e-173
209.507,7.45723e-173
209.899,3.55063e-172
210.291,1.68537e-171
210.684,7.97535e-171
211.076,3.76242e-170
211.468,1.76949e-169
211.861,8.29641e-169
212.253,3.8779e-168
212.645,1.80703e-167
213.038,8.39458e-167
213.43,3.88772e-166
213.822,1.79496e-165
214.215,8.26183e-165
214.607,3.79107e-164
214.999,1.73424e-163
215.392,7.90899e-163
215.784,3.5958e-162
216.176,1.6298e-161
216.568,7.36436e-161
216.961,3.31741e-160
217.353,1.48979e-159
217.745,6.66986e-159
218.138,2.97694e-158
218.53,1.32461e-157
218.922,5.87579e-157
219.315,2.59842e-156
219.707,1.14555e-155
220.099,5.03483e-155
220.492,2.20606e-154
220.884,9.63635e-154
221.276,4.19634e-153
221.669,1.82177e-152
222.061,7.88457e-152
222.453,3.40193e-151
222.846,1.46331e-150
223.238,6.27497e-150
223.63,2.68256e-149
224.022,1.14327e-148
224.415,4.8575e-148
224.807,2.0575e-147
225.199,8.6882e-147
225.592,3.65749e-146
225.984,1.53497e-145
226.376,6.42213e-145
226.769,2.67868e-144
227.161,1.11385e-143
227.553,4.61738e-143
227.946,1.90822e-142
228.338,7.86182e-142
228.73,3.2291e-141
229.123,1.32222e-140
229.515,5.39743e-140
229.907,2.19652e-139
230.3,8.91139e-139
230.692,3.60429e-138
231.084,1.4533e-137
231.476,5.84194e-137
231.869,2.3411e-136
232.261,9.35291e-136
232.653,3.72509e-135
233.046,1.47907e-134
233.438,5.85471e-134
233.83,2.31038e-133
234.223,9.08921e-133
234.615,3.56477e-132
235.007,1.3938e-131
235.4,5.4329e-131
235.792,2.11119e-130
236.184,8.1787e-130
236.577,3.15868e-129
236.969,1.21616e-128
237.361,4.66806e-128
237.754,1.78627e-127
238.146,6.81429e-127
238.538,2.59154e-126
238.931,9.82556e-126
239.323,3.71381e-125
239.715,1.39941e-124
240.107,5.25697e-124
240.5,1.96874e-123
240.892,7.35027e-123
241.284,2.73579e-122
241.677,1.01514e-121
242.069,3.75516e-121
242.461,1.38483e-120
242.854,5.09129e-120
243.246,1.86605e-119
243.638,6.81836e-119
244.031,2.48371e-118
244.423,9.01954e-118
244.815,3.26536e-117
245.208,1.17853e-116
245.6,4.24048e-116
245.992,1.52108e-115
246.385,5.43939e-115
246.777,1.93916e-114
247.169,6.8919e-114
247.561,2.4419e-113
247.954,8.62541e-113
248.346,3.03735e-112
248.738,1.06628e-111
249.131,3.73177e-111
249.523,1.30202e-110
249.915,4.52884e-110
250.308,1.57043e-109
250.7,5.4289e-109
251.092,1.87098e-108
251.485,6.42819e-108
251.877,2.20177e-107
252.269,7.51829e-107
252.662,2.55934e-106
253.054,8.68563e-106
253.446,2.93858e-105
253.839,9.91143e-105
254.231,3.33272e-104
254.623,1.11718e-103
255.015,3.73347e-103
255.408,1.24384e-102
255.8,4.13122e-102
256.192,1.36791e-101
256.585,4.51542e-101
256.977,1.48594e-100
257.369,4.87494e-100
257.762,1.59441e-99
258.154,5.19868e-99
258.546,1.68986e-98
258.939,5.47608e-98
259.331,1.7691e-97
259.723,5.69769e-97
260.116,1.8294e-96
260.508,5.85573e-96
260.9,1.8686e-95
261.293,5.9445e-95
261.685,1.88528e-94
262.077,5.96076e-94
262.469,1.87884e-93
262.862,5.90393e-93
263.254,1.84951e-92
263.646,5.77608e-92
264.039,1.79835e-91
264.431,5.58184e-91
264.823,1.72721e-90
265.216,5.32813e-90
265.608,1.63858e-89
266,5.02371e-89
266.393,1.53548e-88
266.785,4.67871e-88
267.177,1.42126e-87
267.57,4.30409e-87
267.962,1.29943e-86
268.354,3.91101e-86
268.747,1.17351e-85
269.139,3.51033e-85
269.531,1.04682e-84
269.923,3.11215e-84
270.316,9.22383e-84
270.708,2.72537e-83
271.1,8.02791e-83
271.493,2.35745e-82
271.885,6.90155e-82
272.277,2.01425e-81
272.67,5.86061e-81
273.062,1.69995e-80
273.454,4.91577e-80
273.847,1.41713e-79
274.239,4.0728e-79
274.631,1.16691e-78
275.024,3.33309e-78
275.416,9.49114e-78
275.808,2.69435e-77
276.201,7.6252e-77
276.593,2.15136e-76
276.985,6.05113e-76
277.377,1.69677e-75
277.77,4.74323e-75
278.162,1.32187e-74
278.554,3.67253e-74
278.947,1.0172e-73
279.339,2.80872e-73
279.731,7.73168e-73
280.124,2.1218e-72
280.516,5.80492e-72
280.908,1.58326e-71
281.301,4.30497e-71
281.693,1.16695e-70
282.085,3.15353e-70
282.478,8.49582e-70
282.87,2.2818e-69
283.262,6.10958e-69
283.655,1.63083e-68
284.047,4.3398e-68
284.439,1.15131e-67
284.831,3.04495e-67
285.224,8.02842e-67
285.616,2.1103e-66
286.008,5.52993e-66
286.401,1.44464e-65
286.793,3.76238e-65
287.185,9.7685e-65
287.578,2.52847e-64
287.97,6.52453e-64
288.362,1.67843e-63
288.755,4.3045e-63
289.147,1.10054e-62
289.539,2.8051e-62
289.932,7.12782e-62
290.324,1.80563e-61
290.716,4.55997e-61
291.109,1.14804e-60
291.501,2.8815e-60
291.893,7.21012e-60
292.285,1.79858e-59
292.678,4.4728e-59
293.07,1.1089e-58
293.462,2.74074e-58
293.855,6.75316e-58
294.247,1.65886e-57
294.639,4.06233e-57
295.032,9.91753e-57
295.424,2.41377e-56
295.816,5.85666e-56
296.209,1.41667e-55
296.601,3.41625e-55
296.993,8.21284e-55
297.386,1.96834e-54
297.778,4.70296e-54
298.17,1.12022e-53
298.563,2.66012e-53
298.955,6.29741e-53
299.347,1.48623e-52
299.739,3.4968e-52
300.132,8.20201e-52
300.524,1.91793e-51
300.916,4.47104e-51
301.309,1.03908e-50
301.701,2.40741e-50
302.093,5.56051e-50
302.486,1.28039e-49
302.878,2.93923e-49
303.27,6.72649e-49
303.663,1.53464e-48
304.055,3.49049e-48
304.447,7.91463e-48
304.84,1.78911e-47
305.232,4.03188e-47
305.624,9.05819e-47
306.017,2.02879e-46
306.409,4.52999e-46
306.801,1.00837e-45
307.194,2.23772e-45
307.586,4.95057e-45
307.978,1.09186e-44
308.37,2.40072e-44
308.763,5.26236e-44
309.155,1.14996e-43
309.547,2.50523e-43
309.94,5.44095e-43
310.332,1.17806e-42
310.724,2.54284e-42
311.117,5.47189e-42
311.509,1.17386e-41
311.901,2.5105e-41
312.294,5.35264e-41
312.686,1.13773e-40
313.078,2.41085e-40
313.471,5.09292e-40
313.863,1.07257e-39
314.255,2.25189e-39
314.648,4.71339e-39
315.04,9.83517e-39
315.432,2.04594e-38
315.824,4.24296e-38
316.217,8.77216e-38
316.609,1.80804e-37
317.001,3.71512e-37
317.394,7.61026e-37
317.786,1.55414e-36
318.178,3.16406e-36
318.571,6.42186e-36
318.963,1.29939e-35
319.355,2.6211e-35
319.748,5.27097e-35
320.14,1.05672e-34
320.532,2.11199e-34
320.925,4.20812e-34
321.317,8.35886e-34
321.709,1.65527e-33
322.102,3.26779e-33
322.494,6.43135e-33
322.886,1.26187e-32
323.278,2.46824e-32
323.671,4.81311e-32
324.063,9.35678e-32
324.455,1.81339e-31
324.848,3.50362e-31
325.24,6.74851e-31
325.632,1.29587e-30
326.025,2.48072e-30
326.417,4.73432e-30
326.809,9.00741e-30
327.202,1.70846e-29
327.594,3.23054e-29
327.986,6.08986e-29
328.379,1.14446e-28
328.771,2.14418e-28
329.163,4.00481e-28
329.556,7.45705e-28
329.948,1.38425e-27
330.34,2.56169e-27
330.732,4.72607e-27
331.125,8.69235e-27
331.517,1.59381e-26
331.909,2.91341e-26
332.302,5.30919e-26
332.694,9.64535e-26
333.086,1.74691e-25
333.479,3.15418e-25
333.871,5.67762e-25
334.263,1.01885e-24
334.656,1.8227e-24
335.048,3.25074e-24
335.44,5.77982e-24
335.833,1.02449e-23
336.225,1.81037e-23
336.617,3.18925e-23
337.01,5.6011e-23
337.402,9.80665e-23
337.794,1.71171e-22
338.186,2.97855e-22
338.579,5.16704e-22
338.971,8.93598e-22
339.363,1.54065e-21
339.756,2.64808e-21
340.148,4.53755e-21
340.54,7.75128e-21
340.933,1.32005e-20
341.325,2.24114e-20
341.717,3.79324e-20
342.11,6.40052e-20
342.502,1.07667e-19
342.894,1.80557e-19
343.287,3.01863e-19
343.679,5.03115e-19
344.071,8.35965e-19
344.464,1.38475e-18
344.856,2.28675e-18
345.248,3.76469e-18
345.64,6.17878e-18
346.033,1.01097e-17
346.425,1.64907e-17
346.817,2.68165e-17
347.21,4.34738e-17
347.602,7.02614e-17
347.994,1.13206e-16
348.387,1.81838e-16
348.779,2.91181e-16
349.171,4.64841e-16
349.564,7.39792e-16
349.956,1.17375e-15
350.348,1.85656e-15
350.741,2.92754e-15
351.133,4.60214e-15
351.525,7.21241e-15
351.918,1.12684e-14
352.31,1.75514e-14
352.702,2.72534e-14
353.094,4.21884e-14
353.487,6.51073e-14
353.879,1.00168e-13
354.271,1.53635e-13
354.664,2.34918e-13
355.056,3.58101e-13
355.448,5.44199e-13
355.841,8.24466e-13
356.233,1.24523e-12
356.625,1.87496e-12
357.018,2.81447e-12
357.41,4.21176e-12
357.802,6.2834e-12
358.195,9.34519e-12
358.587,1.38562e-11
358.979,2.04817e-11
359.372,3.0182e-11
359.764,4.43399e-11
360.156,6.49388e-11
360.548,9.4815e-11
360.941,1.38011e-10
361.333,2.00268e-10
361.725,2.89717e-10
362.118,4.17829e-10
362.51,6.00741e-10
362.902,8.61071e-10
363.295,1.23042e-09
363.687,1.75279e-09
364.079,2.48927e-09
364.472,3.52433e-09
364.864,4.97443e-09
365.256,6.9996e-09
365.649,9.81899e-09
366.041,1.37317e-08
366.433,1.91445e-08
366.826,2.66088e-08
367.218,3.68699e-08
367.61,5.09309e-08
368.002,7.0138e-08
368.395,9.62917e-08
368.787,1.31791e-07
369.179,1.79825e-07
369.572,2.4461e-07
369.964,3.31712e-07
370.356,4.48449e-07
370.749,6.04404e-07
371.141,8.1209e-07
371.533,1.08779e-06
371.926,1.45261e-06
372.318,1.93382e-06
372.71,2.56652e-06
373.103,3.39577e-06
373.495,4.47914e-06
373.887,5.88998e-06
374.28,7.7214e-06
374.672,1.00912e-05
375.064,1.31477e-05
375.457,1.70774e-05
375.849,2.21135e-05
376.241,2.85467e-05
376.633,3.67381e-05
377.026,4.71348e-05
377.418,6.02877e-05
377.81,7.6874e-05
378.203,9.77223e-05
378.595,0.000123843
378.987,0.000156463
379.38,0.000197067
379.772,0.000247446
380.164,0.000309749
380.557,0.000386547
380.949,0.000480904
381.341,0.000596455
381.734,0.000737496
382.126,0.000909085
382.518,0.00111715
382.911,0.00136863
383.303,0.00167155
383.695,0.00203525
384.087,0.00247046
384.48,0.00298952
384.872,0.00360653
385.264,0.0043375
385.657,0.00520059
386.049,0.00621627
386.441,0.00740746
386.834,0.00879979
387.226,0.0104217
387.618,0.0123046
388.011,0.014483
388.403,0.0169948
388.795,0.0198808
389.188,0.0231854
389.58,0.0269563
389.972,0.0312441
390.365,0.0361027
390.757,0.0415885
391.149,0.0477607
391.541,0.0546804
391.934,0.0624102
392.326,0.0710137
392.718,0.0805549
393.111,0.0910972
393.503,0.102703
393.895,0.115431
394.288,0.129337
394.68,0.144474
395.072,0.160886
395.465,0.178612
395.857,0.197681
396.249,0.218114
396.642,0.239919
397.034,0.263093
397.426,0.287618
397.819,0.313464
398.211,0.340581
398.603,0.368908
398.995,0.398362
399.388,0.428846
399.78,0.460244
400.172,0.492422
400.565,0.525231
400.957,0.558504
401.349,0.592059
401.742,0.625702
402.134,0.659223
402.526,0.692406
402.919,0.725024
403.311,0.756845
403.703,0.787635
404.096,0.817158
404.488,0.845182
404.88,0.87148
405.273,0.895834
405.665,0.918039
406.057,0.937903
406.449,0.955251
406.842,0.96993
407.234,0.981808
407.626,0.990777
408.019,0.996754
408.411,0.999686
408.803,0.999545
409.196,0.996332
409.588,0.990077
409.98,0.980837
410.373,0.968697
410.765,0.953767
411.157,0.936181
411.55,0.916095
411.942,0.893684
412.334,0.869142
412.727,0.842677
413.119,0.814506
413.511,0.784857
413.903,0.753963
414.296,0.722058
414.688,0.689379
415.08,0.656156
415.473,0.622614
415.865,0.588971
416.257,0.555434
416.65,0.522196
417.042,0.489438
417.434,0.457326
417.827,0.426007
418.219,0.395613
418.611,0.366258
419.004,0.33804
419.396,0.311036
419.788,0.28531
420.181,0.260908
420.573,0.237859
420.965,0.21618
421.357,0.195873
421.75,0.176928
422.142,0.159324
422.534,0.143031
422.927,0.12801
423.319,0.114213
423.711,0.101591
424.104,0.0900857
424.496,0.079638
424.888,0.0701855
425.281,0.0616649
425.673,0.0540121
426.065,0.0471637
426.458,0.0410571
426.85,0.0356312
427.242,0.0308274
427.635,0.0265893
428.027,0.0228633
428.419,0.019599
428.811,0.0167492
429.204,0.0142697
429.596,0.0121199
429.988,0.0102624
430.381,0.00866281
430.773,0.00729009
431.165,0.00611604
431.558,0.0051153
431.95,0.00426516
432.342,0.00354537
432.735,0.002938
433.127,0.0024272
433.519,0.00199904
433.912,0.00164135
434.304,0.00134352
434.696,0.00109635
435.089,0.000891904
435.481,0.000723353
435.873,0.000584851
436.265,0.000471415
436.658,0.000378813
437.05,0.000303466
437.442,0.000242358
437.835,0.00019296
438.227,0.000153159
438.619,0.000121193
439.012,9.56047e-05
439.404,7.5187e-05
439.796,5.8948e-05
440.189,4.60743e-05
440.581,3.59014e-05
440.973,2.78887e-05
441.366,2.15977e-05
441.758,1.66744e-05
442.15,1.28338e-05
442.543,9.84743e-06
442.935,7.53277e-06
443.327,5.74446e-06
443.72,4.36724e-06
444.112,3.31e-06
444.504,2.50099e-06
444.896,1.88391e-06
445.289,1.41472e-06
445.681,1.05912e-06
446.073,7.90461e-07
446.466,5.8814e-07
446.858,4.36258e-07
447.25,3.22604e-07
447.643,2.37826e-07
448.035,1.74788e-07
448.427,1.28064e-07
448.82,9.35417e-08
449.212,6.81157e-08
449.604,4.94484e-08
449.997,3.57866e-08
450.389,2.58197e-08
450.781,1.85715e-08
451.174,1.33169e-08
451.566,9.51972e-09
451.958,6.78435e-09
452.35,4.82009e-09
452.743,3.41401e-09
453.135,2.41067e-09
453.527,1.69697e-09
453.92,1.1909e-09
454.312,8.33176e-10
454.704,5.81116e-10
455.097,4.04065e-10
455.489,2.80094e-10
455.881,1.93561e-10
456.274,1.33351e-10
456.666,9.1588e-11
457.058,6.27109e-11
457.451,4.28066e-11
457.843,2.91301e-11
458.235,1.97622e-11
458.628,1.33657e-11
459.02,9.01183e-12
459.412,6.05754e-12
459.804,4.05923e-12
460.197,2.71177e-12
460.589,1.80603e-12
460.981,1.19912e-12
461.374,7.93708e-13
461.766,5.23749e-13
462.158,3.44547e-13
462.551,2.25963e-13
462.943,1.47737e-13
463.335,9.62949e-14
463.728,6.25722e-14
464.12,4.05343e-14
464.512,2.61774e-14
464.905,1.68537e-14
465.297,1.08174e-14
465.689,6.92179e-15
466.082,4.41545e-15
466.474,2.80799e-15
466.866,1.78024e-15
467.258,1.12519e-15
467.651,7.08979e-16
468.043,4.45355e-16
468.435,2.78896e-16
468.828,1.74117e-16
469.22,1.08368e-16
469.612,6.72399e-17
470.005,4.15925e-17
470.397,2.56488e-17
470.789,1.57682e-17
471.182,9.66404e-18
471.574,5.90472e-18
471.966,3.59669e-18
472.359,2.18409e-18
472.751,1.32221e-18
473.143,7.97983e-19
473.536,4.8012e-19
473.928,2.87985e-19
474.32,1.72208e-19
474.712,1.02659e-19
475.105,6.10108e-20
475.497,3.61476e-20
475.889,2.13508e-20
476.282,1.25722e-20
476.674,7.3803e-21
477.066,4.31915e-21
477.459,2.51992e-21
477.851,1.46567e-21
478.243,8.49868e-22
478.636,4.9128e-22
479.028,2.83119e-22
479.42,1.62657e-22
479.813,9.31621e-23
480.205,5.31948e-23
480.597,3.02804e-23
480.99,1.71837e-23
481.382,9.72158e-24
481.774,5.48301e-24
482.166,3.08294e-24
482.559,1.72812e-24
482.951,9.65706e-25
483.343,5.37997e-25
483.736,2.98798e-25
484.128,1.65439e-25
484.52,9.13194e-26
484.913,5.02517e-26
485.305,2.75677e-26
485.697,1.5077e-26
486.09,8.22037e-27
486.482,4.46819e-27
486.874,2.42122e-27
487.267,1.30798e-27
487.659,7.04418e-28
488.051,3.78201e-28
488.444,2.02432e-28
488.836,1.08018e-28
489.228,5.74618e-29
489.62,3.04736e-29
490.013,1.61114e-29
490.307,9.96922e-30