File: CRYSTAL-IR-RAMAN/TiO2_rutile.log-IR.csv
E(cm-1),I
0.01,4.11574e-42
0.797902,1.89515e-41
1.5858,8.61878e-41
2.37371,3.8713e-40
3.16161,1.71742e-39
3.94951,7.52493e-39
4.73741,3.2564e-38
5.52531,1.39181e-37
6.31321,5.8753e-37
7.10112,2.44956e-36
7.88902,1.00868e-35
8.67692,4.10231e-35
9.46482,1.64782e-34
10.2527,6.53733e-34
11.0406,2.56152e-33
11.8285,9.91298e-33
12.6164,3.78894e-32
13.4043,1.43034e-31
14.1922,5.33296e-31
14.9801,1.96384e-30
15.768,7.14251e-30
16.5559,2.56569e-29
17.3438,9.10259e-29
18.1317,3.18958e-28
18.9196,1.10385e-27
19.7075,3.77307e-27
20.4954,1.27376e-26
21.2834,4.24706e-26
22.0713,1.39861e-25
22.8592,4.54896e-25
23.6471,1.46129e-24
24.435,4.63627e-24
25.2229,1.45281e-23
26.0108,4.49631e-23
26.7987,1.3744e-22
27.5866,4.14931e-22
28.3745,1.23722e-21
29.1624,3.64357e-21
29.9503,1.05978e-20
30.7382,3.04445e-20
31.5261,8.63799e-20
32.314,2.4206e-19
33.1019,6.69951e-19
33.8898,1.83134e-18
34.6777,4.9443e-18
35.4656,1.3184e-17
36.2535,3.47215e-17
37.0414,9.03146e-17
37.8293,2.3202e-16
38.6172,5.88708e-16
39.4051,1.47531e-15
40.193,3.65152e-15
40.9809,8.92633e-15
41.7688,2.15516e-14
42.5567,5.1392e-14
43.3446,1.21037e-13
44.1325,2.81547e-13
44.9204,6.46831e-13
45.7083,1.46771e-12
46.4962,3.28924e-12
47.2841,7.2805e-12
48.072,1.5916e-11
48.8599,3.43651e-11
49.6478,7.32839e-11
50.4357,1.54351e-10
51.2236,3.21083e-10
52.0115,6.59684e-10
52.7994,1.33864e-09
53.5873,2.68288e-09
54.3752,5.31066e-09
55.1631,1.03826e-08
55.951,2.00481e-08
56.7389,3.82343e-08
57.5268,7.20185e-08
58.3147,1.33982e-07
59.1026,2.46185e-07
59.8905,4.46776e-07
60.6784,8.00815e-07
61.4663,1.41772e-06
62.2542,2.47893e-06
63.0421,4.28109e-06
63.8301,7.30238e-06
64.618,1.23025e-05
65.4059,2.04714e-05
66.1938,3.36453e-05
66.9817,5.46171e-05
67.7696,8.75714e-05
68.5575,0.000138685
69.3454,0.000216936
70.1333,0.000335179
70.9212,0.000511527
71.7091,0.0007711
72.497,0.00114818
73.2849,0.0016888
74.0728,0.00245369
74.8607,0.00352164
75.6486,0.00499305
76.4365,0.00699351
77.2244,0.00967715
78.0123,0.0132294
78.8002,0.0178686
79.5881,0.0238464
80.376,0.0314456
81.1639,0.0409762
81.9518,0.0527677
82.7397,0.0671593
83.5276,0.0844865
84.3155,0.105064
85.1034,0.12917
85.8913,0.157024
86.6792,0.188768
87.4671,0.224451
88.255,0.264009
89.0429,0.30726
89.8308,0.353895
90.6187,0.403477
91.4066,0.455455
92.1945,0.509167
92.9824,0.563868
93.7703,0.618743
94.5582,0.672936
95.3461,0.725572
96.134,0.775781
96.9219,0.822713
97.7098,0.865562
98.4977,0.903576
99.2856,0.936067
100.074,0.962423
100.861,0.982117
101.649,0.994716
102.437,0.999893
103.225,0.997438
104.013,0.987275
104.801,0.96947
105.589,0.944249
106.377,0.912
107.165,0.873276
107.953,0.82879
108.74,0.779397
109.528,0.726072
110.316,0.669877
111.104,0.611923
111.892,0.553325
112.68,0.495163
113.468,0.43844
114.256,0.384045
115.044,0.332726
115.832,0.285071
116.619,0.241501
117.407,0.202267
118.195,0.167464
118.983,0.137045
119.771,0.110843
120.559,0.0885972
121.347,0.0699789
122.135,0.0546161
122.923,0.0421169
123.711,0.0320887
124.498,0.024154
125.286,0.0179617
126.074,0.0131952
126.862,0.00957597
127.65,0.00686487
128.438,0.00486135
129.226,0.00340054
130.014,0.00234962
130.802,0.00160361
131.59,0.00108105
132.378,0.000719841
133.165,0.000473438
133.953,0.000307555
134.741,0.000197338
135.529,0.000125063
136.317,7.82833e-05
137.105,4.83986e-05
137.893,2.9554e-05
138.681,1.78246e-05
139.469,1.06179e-05
140.257,6.24707e-06
141.044,3.63018e-06
141.832,2.0835e-06
142.62,1.18106e-06
143.408,6.61247e-07
144.196,3.65652e-07
144.984,1.99702e-07
145.772,1.07723e-07
146.56,5.73912e-08
147.348,3.0199e-08
148.136,1.56946e-08
148.923,8.05593e-09
149.711,4.08406e-09
150.499,2.04492e-09
151.287,1.01128e-09
152.075,4.9394e-10
152.863,2.38279e-10
153.651,1.13529e-10
154.439,5.34239e-11
155.227,2.48298e-11
156.015,1.13978e-11
156.802,5.16742e-12
157.59,2.31386e-12
158.378,1.02331e-12
159.166,4.46978e-13
159.954,1.92829e-13
160.742,8.21615e-14
161.53,3.45758e-14
162.318,1.43709e-14
163.106,5.89933e-15
163.894,2.39183e-15
164.681,9.57779e-16
165.469,3.78799e-16
166.257,1.47965e-16
167.045,5.70847e-17
167.833,2.17514e-17
168.621,8.18582e-18
169.409,3.0426e-18
170.197,1.11696e-18
170.985,4.04982e-19
171.773,1.45025e-19
172.561,5.12929e-20
173.348,1.79176e-20
174.136,6.18174e-21
174.924,2.10644e-21
175.712,7.08918e-22
176.5,2.35641e-22
177.288,7.73594e-23
178.076,2.50832e-23
178.864,8.0327e-24
179.652,2.54067e-24
180.44,7.93673e-25
181.227,2.44874e-25
182.015,7.46196e-26
182.803,2.2458e-26
183.591,6.67569e-27
184.379,1.95988e-27
185.167,5.68291e-28
185.955,1.6275e-28
186.743,4.60338e-29
187.531,1.286e-29
188.319,3.54826e-30
189.106,9.66932e-31
189.894,2.60246e-31
190.682,6.91801e-32
191.47,1.81629e-32
192.258,4.70975e-33
193.046,1.2062e-33
193.834,3.05103e-34
194.622,7.62224e-35
195.41,1.88073e-35
196.198,4.5833e-36
196.985,1.10316e-36
197.773,2.62244e-37
198.561,6.15717e-38
199.349,1.42779e-38
200.137,3.27006e-39
200.925,7.39699e-40
201.713,1.65258e-40
202.501,3.64651e-41
203.289,7.94694e-42
204.077,1.71053e-42
204.864,3.63638e-43
205.652,7.63512e-44
206.44,1.58333e-44
207.228,3.24289e-45
208.016,6.55998e-46
208.804,1.31063e-46
209.592,2.58623e-47
210.38,5.04035e-48
211.168,9.70203e-49
211.956,1.84447e-49
212.744,3.4633e-50
213.531,6.42267e-51
214.319,1.17638e-51
215.107,2.12809e-52
215.895,3.80224e-53
216.683,6.70959e-54
217.471,1.16939e-54
218.259,2.01295e-55
219.047,3.42227e-56
219.835,5.7465e-57
220.623,9.53015e-58
221.41,1.561e-58
222.198,2.52532e-59
222.986,4.03493e-60
223.774,6.36744e-61
224.562,9.92431e-62
225.35,1.52772e-62
226.138,2.32272e-63
226.926,3.48783e-64
227.714,5.17277e-65
228.502,7.57702e-66
229.289,1.09618e-66
230.077,1.56629e-67
230.865,2.21041e-68
231.653,3.08091e-69
232.441,4.24125e-70
233.229,5.76656e-71
234.017,7.74368e-72
234.805,1.02704e-72
235.593,1.34534e-73
236.381,1.74055e-74
237.168,2.22407e-75
237.956,2.80685e-76
238.744,3.49862e-77
239.532,4.30708e-78
240.32,5.23693e-79
241.108,6.28896e-80
241.896,7.45924e-81
242.684,8.74752e-82
243.472,1.09498e-82
244.26,8.38158e-83
245.047,6.15113e-82
245.835,5.14953e-81
246.623,4.26664e-80
247.411,3.49159e-79
248.199,2.82208e-78
248.987,2.2528e-77
249.775,1.77617e-76
250.563,1.3831e-75
251.351,1.06373e-74
252.139,8.08008e-74
252.926,6.0619e-73
253.714,4.49169e-72
254.502,3.28714e-71
255.29,2.37594e-70
256.078,1.69613e-69
256.866,1.19589e-68
257.654,8.32784e-68
258.442,5.7277e-67
259.23,3.89078e-66
260.018,2.61036e-65
260.806,1.72971e-64
261.593,1.13202e-63
262.381,7.31712e-63
263.169,4.67128e-62
263.957,2.94537e-61
264.745,1.83422e-60
265.533,1.12816e-59
266.321,6.85326e-59
267.109,4.1118e-58
267.897,2.43655e-57
268.685,1.42602e-56
269.472,8.24299e-56
270.26,4.706e-55
271.048,2.65354e-54
271.836,1.47778e-53
272.624,8.12828e-53
273.412,4.41567e-52
274.2,2.36921e-51
274.988,1.2555e-50
275.776,6.57111e-50
276.564,3.39679e-49
277.351,1.73423e-48
278.139,8.74484e-48
278.927,4.35517e-47
279.715,2.14223e-46
280.503,1.04073e-45
281.291,4.99359e-45
282.079,2.36645e-44
282.867,1.10762e-43
283.655,5.12026e-43
284.443,2.33776e-42
285.23,1.05419e-41
286.018,4.69507e-41
286.806,2.06526e-40
287.594,8.97252e-40
288.382,3.85002e-39
289.17,1.63162e-38
289.958,6.8294e-38
290.746,2.82328e-37
291.534,1.15275e-36
292.322,4.6486e-36
293.109,1.85147e-35
293.897,7.28317e-35
294.685,2.82965e-34
295.473,1.0858e-33
296.261,4.11508e-33
297.049,1.54033e-32
297.837,5.69451e-32
298.625,2.07925e-31
299.413,7.49835e-31
300.201,2.67074e-30
300.989,9.39521e-30
301.776,3.26429e-29
302.564,1.12016e-28
303.352,3.79645e-28
304.14,1.27082e-27
304.928,4.20143e-27
305.716,1.37189e-26
306.504,4.42434e-26
307.292,1.40924e-25
308.08,4.43335e-25
308.868,1.37748e-24
309.655,4.22714e-24
310.443,1.2812e-23
311.231,3.83524e-23
312.019,1.13391e-22
312.807,3.31108e-22
313.595,9.54928e-22
314.383,2.72007e-21
315.171,7.65237e-21
315.959,2.12628e-20
316.747,5.83516e-20
317.534,1.58159e-19
318.322,4.2339e-19
319.11,1.11943e-18
319.898,2.92321e-18
320.686,7.53932e-18
321.474,1.92049e-17
322.262,4.83169e-17
323.05,1.20059e-16
323.838,2.94644e-16
324.626,7.14183e-16
325.413,1.70973e-15
326.201,4.04255e-15
326.989,9.4404e-15
327.777,2.17737e-14
328.565,4.96002e-14
329.353,1.11594e-13
330.141,2.47976e-13
330.929,5.44231e-13
331.717,1.17968e-12
332.505,2.52555e-12
333.292,5.34015e-12
334.08,1.11522e-11
334.868,2.30024e-11
335.656,4.68592e-11
336.444,9.42811e-11
337.232,1.87354e-10
338.02,3.67712e-10
338.808,7.12788e-10
339.596,1.36465e-09
340.384,2.58042e-09
341.172,4.81912e-09
341.959,8.88899e-09
342.747,1.61937e-08
343.535,2.91371e-08
344.323,5.17791e-08
345.111,9.08805e-08
345.899,1.57542e-07
346.687,2.69729e-07
347.475,4.56108e-07
348.263,7.61755e-07
349.051,1.25653e-06
349.838,2.04708e-06
350.626,3.29387e-06
351.414,5.23463e-06
352.202,8.21625e-06
352.99,1.2737e-05
353.778,1.95017e-05
354.566,2.94906e-05
355.354,4.40456e-05
356.142,6.49724e-05
356.93,9.46594e-05
357.717,0.000136209
358.505,0.000193578
359.293,0.000271716
360.081,0.000376688
360.869,0.00051577
361.657,0.00069749
362.445,0.000931597
363.233,0.00122893
364.021,0.00160115
364.809,0.00206037
365.596,0.00261859
366.384,0.00328698
367.172,0.00407506
367.96,0.00498976
368.748,0.00603438
369.536,0.00720765
370.324,0.00850281
371.112,0.00990694
371.9,0.0114005
372.688,0.0129574
373.475,0.0145451
374.263,0.016126
375.051,0.017658
375.839,0.019097
376.627,0.0203985
377.415,0.0215198
378.203,0.0224226
378.991,0.023075
379.779,0.0234534
380.567,0.0235438
381.355,0.023343
382.142,0.0228583
382.93,0.0221075
383.718,0.0211175
384.506,0.0199229
385.294,0.018564
386.082,0.0170844
386.87,0.0155286
387.658,0.0139404
388.446,0.0123602
389.234,0.0108239
390.021,0.00936163
390.809,0.00799697
391.597,0.00674695
392.385,0.00562208
393.173,0.00462695
393.961,0.00376098
394.749,0.00301936
395.537,0.00239407
396.325,0.00187485
397.113,0.00145012
397.9,0.00110777
398.688,0.000835797
399.476,0.000622819
400.264,0.000458385
401.052,0.000333202
401.84,0.000239217
402.628,0.000169623
403.416,0.000118791
404.204,8.21662e-05
404.992,5.61319e-05
405.779,3.78733e-05
406.567,2.52386e-05
407.355,1.66114e-05
408.143,1.07982e-05
408.931,6.9328e-06
409.719,4.39615e-06
410.507,2.75324e-06
411.295,1.70303e-06
412.083,1.04042e-06
412.871,6.27777e-07
413.658,3.74118e-07
414.446,2.20201e-07
415.234,1.28008e-07
416.022,7.34962e-08
416.81,4.16773e-08
417.598,2.33422e-08
418.386,1.2912e-08
419.174,7.05425e-09
419.962,3.80642e-09
420.75,2.02857e-09
421.537,1.06776e-09
422.325,5.55089e-10
423.113,2.8501e-10
423.901,1.44533e-10
424.689,7.23902e-11
425.477,3.58097e-11
426.265,1.74957e-11
427.053,8.44243e-12
427.841,4.02358e-12
428.629,1.89394e-12
429.417,8.80494e-13
430.204,4.04292e-13
430.992,1.83346e-13
431.78,8.21214e-14
432.568,3.63286e-14
433.356,1.58726e-14
434.144,6.84948e-15
434.932,2.91926e-15
435.72,1.22885e-15
436.508,5.10892e-16
437.296,2.09782e-16
438.083,8.50779e-17
438.871,3.40779e-17
439.659,1.34814e-17
440.447,5.26753e-18
441.235,2.03276e-18
442.023,7.74781e-19
442.811,2.91683e-19
443.599,1.08523e-19
444.387,4.00796e-20
445.175,1.52127e-20
445.962,7.42223e-21
446.75,8.30704e-21
447.538,1.90593e-20
448.326,5.19585e-20
449.114,1.43603e-19
449.902,3.9328e-19
450.69,1.0642e-18
451.478,2.84427e-18
452.266,7.50813e-18
453.054,1.95749e-17
453.841,5.04053e-17
454.629,1.28192e-16
455.417,3.21998e-16
456.205,7.98827e-16
456.993,1.95731e-15
457.781,4.7367e-15
458.569,1.13214e-14
459.357,2.67258e-14
460.145,6.23119e-14
460.933,1.43489e-13
461.72,3.26342e-13
462.508,7.33055e-13
463.296,1.62633e-12
464.084,3.56358e-12
464.872,7.71211e-12
465.66,1.64842e-11
466.448,3.47993e-11
467.236,7.25573e-11
468.024,1.49417e-10
468.812,3.03897e-10
469.6,6.10464e-10
470.387,1.21116e-09
471.175,2.3733e-09
471.963,4.59314e-09
472.751,8.77962e-09
473.539,1.65748e-08
474.327,3.09051e-08
475.115,5.69141e-08
475.903,1.03518e-07
476.691,1.85961e-07
477.479,3.29941e-07
478.266,5.78172e-07
479.054,1.00066e-06
479.842,1.7105e-06
480.63,2.8878e-06
481.418,4.81526e-06
482.206,7.93012e-06
482.994,1.28988e-05
483.782,2.07217e-05
484.57,3.28782e-05
485.358,5.15229e-05
486.145,7.97445e-05
486.933,0.000121901
487.721,0.000184045
488.509,0.00027444
489.297,0.000404184
490.085,0.00058792
490.873,0.000844628
491.661,0.00119845
492.449,0.00167951
493.237,0.00232464
494.024,0.00317785
494.812,0.00429062
495.6,0.00572157
496.388,0.00753559
497.176,0.0098023
497.964,0.0125935
498.752,0.0159798
499.54,0.0200266
500.328,0.0247884
501.116,0.0303039
501.903,0.0365895
502.691,0.0436337
503.479,0.0513919
504.267,0.0597828
505.055,0.0686856
505.843,0.0779405
506.631,0.087351
507.419,0.0966899
508.207,0.105707
508.995,0.114138
509.783,0.121722
510.57,0.128207
511.358,0.133372
512.146,0.137033
512.934,0.139057
513.722,0.13937
514.51,0.13796
515.298,0.134879
516.086,0.13024
516.874,0.124209
517.662,0.116995
518.449,0.108841
519.237,0.100005
520.025,0.0907533
520.813,0.081341
521.601,0.0720053
522.389,0.0629546
523.177,0.0543623
523.965,0.0463636
524.753,0.0390538
525.541,0.0324906
526.328,0.0266969
527.116,0.0216656
527.904,0.0173656
528.692,0.0137472
529.48,0.0107485
530.268,0.00830024
531.056,0.00633054
531.844,0.00476868
532.632,0.00354784
533.42,0.00260698
534.207,0.00189199
534.995,0.00135615
535.783,0.000960074
536.571,0.00067129
537.359,0.000463578
538.147,0.000316187
538.935,0.000212996
539.723,0.000141713
540.511,9.31222e-05
541.299,6.04374e-05
542.086,3.87406e-05
542.874,2.45264e-05
543.662,1.53359e-05
544.45,9.47096e-06
545.238,5.77678e-06
546.026,3.48005e-06
546.814,2.07058e-06
547.602,1.21677e-06
548.39,7.06207e-07
549.178,4.04821e-07
549.966,2.29194e-07
550.753,1.28159e-07
551.541,7.0779e-08
552.329,3.86071e-08
553.117,2.07988e-08
553.905,1.10667e-08
554.693,5.81571e-09
555.481,3.01854e-09
556.269,1.54739e-09
557.057,7.83448e-10
557.845,3.91767e-10
558.632,1.93488e-10
559.42,9.43817e-11
560.208,4.54705e-11
560.996,2.16361e-11
561.784,1.0168e-11
562.572,4.71957e-12
563.36,2.16359e-12
564.148,9.79618e-13
564.936,4.38073e-13
565.724,1.93483e-13
566.511,8.44011e-14
567.299,3.63631e-14
568.087,1.54732e-14
568.875,6.50294e-15
569.663,2.69927e-15
570.451,1.1066e-15
571.239,4.48067e-16
572.027,1.79186e-16
572.815,7.07736e-17
573.603,2.76088e-17
574.39,1.06373e-17
575.178,4.04783e-18
575.966,1.52133e-18
576.754,5.64716e-19
577.542,2.07036e-19
578.33,7.49667e-20
579.118,2.68102e-20
579.906,9.46976e-21
580.694,3.30359e-21
581.482,1.13826e-21
582.269,3.8735e-22
583.057,1.30189e-22
583.845,4.32168e-23
584.633,1.4169e-23
585.421,4.5881e-24
586.209,1.46736e-24
586.997,4.63496e-25
587.785,1.44598e-25
588.573,4.45543e-26
589.361,1.35589e-26
590.148,4.07535e-27
590.936,1.2098e-27
591.724,3.54709e-28
592.512,1.02716e-28
593.3,2.93772e-29
594.088,8.29835e-30
594.876,2.31516e-30
595.664,6.37937e-31
596.452,1.73613e-31
597.24,4.66654e-32
598.028,1.23884e-32
598.815,3.24821e-33
599.603,8.41164e-34
600.391,2.15142e-34
601.179,5.43472e-35
601.967,1.35593e-35
602.755,3.34122e-36
603.543,8.13169e-37
604.331,1.95463e-37
605.119,4.64041e-38
605.907,1.08807e-38
606.694,2.51978e-39
607.482,5.76339e-40
608.27,1.30197e-40
609.058,2.90491e-41
609.846,6.40135e-42
610.634,1.39322e-42
611.422,2.99484e-43
612.21,6.35822e-44
612.998,1.33323e-44
613.786,2.76112e-45
614.573,5.64769e-46
615.361,1.14095e-46
616.149,2.2765e-47
616.937,4.48619e-48
617.725,8.73163e-49
618.513,1.6785e-49
619.301,3.1868e-50
620.089,5.9758e-51
620.877,1.10674e-51
621.665,2.02443e-52
622.452,3.65737e-53
623.24,6.52592e-54
624.028,1.15007e-54
624.816,2.00176e-55
625.604,3.44119e-56
626.392,5.84269e-57
627.18,9.79773e-58
627.968,1.62273e-58
628.756,2.65445e-59
629.544,4.28855e-60
630.331,6.84313e-61
631.119,1.07847e-61
631.907,1.67868e-62
632.695,2.58068e-63
633.483,3.91842e-64
634.271,5.87617e-65
635.059,8.70333e-66
635.847,1.27317e-66
636.635,1.83947e-67
637.423,2.62487e-68
638.211,3.69939e-69
638.998,5.14946e-70
639.786,7.07947e-71
640.574,9.61274e-72
641.362,1.28915e-72
642.15,1.70751e-73
642.938,2.23375e-74
643.726,2.88611e-75
644.514,3.68298e-76
645.302,4.64188e-77
646.09,5.77824e-78
646.877,7.10404e-79
647.665,8.62628e-80
648.453,1.03454e-80
649.241,1.22541e-81
650.029,1.43359e-82
650.817,1.65643e-83
651.605,1.8903e-84
652.393,2.13057e-85
653.181,2.37175e-86
653.969,2.60765e-87
654.756,2.83164e-88
655.544,3.03693e-89
656.332,3.21692e-90
657.12,3.36552e-91
657.908,3.47755e-92
658.696,3.54896e-93
659.484,3.57715e-94
660.272,3.56108e-95
661.06,3.50133e-96
661.848,3.40011e-97
662.635,3.26108e-98
663.423,3.08913e-99
664.211,2.89015e-100
664.999,2.67062e-101
665.787,2.43731e-102
666.575,2.19694e-103
667.363,1.95584e-104
668.151,1.71971e-105
668.939,1.49344e-106
669.727,1.28093e-107
670.514,1.08511e-108
671.302,9.07877e-110
672.09,7.50222e-111
672.878,6.12294e-112
673.666,4.93558e-113
674.454,3.92938e-114
675.242,3.08971e-115
676.03,2.3995e-116
676.818,1.84048e-117
677.606,1.39427e-118
678.394,1.04321e-119
679.181,7.70915e-121
679.969,5.62663e-122
680.757,4.05599e-123
681.545,2.88772e-124
682.333,2.03058e-125
683.121,1.41024e-126
683.909,9.67327e-128
684.697,6.55333e-129
685.485,4.38489e-130
686.273,2.89777e-131
687.06,1.89137e-132
687.848,1.21926e-133
688.636,7.7629e-135
689.424,4.88158e-136
690.212,3.03183e-137
691,1.85976e-138
691.788,1.12672e-139
692.576,6.74192e-141
693.364,3.98436e-142
694.152,2.32564e-143
694.939,1.34071e-144
695.727,7.63366e-146
696.515,4.29279e-147
697.303,2.38427e-148
698.091,1.30791e-149
698.879,7.08613e-151
699.667,3.79182e-152
700.455,2.00398e-153
701.243,1.04604e-154
702.031,5.39276e-156
702.818,2.74588e-157
703.606,1.38089e-158
704.394,6.85876e-160
705.182,3.36464e-161
705.97,1.6302e-162
706.758,7.80101e-164
707.546,3.68696e-165
708.334,1.72105e-166
709.122,7.93464e-168
709.91,3.613e-169
710.697,1.62487e-170
711.485,7.2173e-172
712.273,3.16621e-173
713.061,1.37187e-174
713.849,5.87075e-176
714.637,2.48132e-177
715.425,1.03581e-178
716.213,4.27054e-180
717.001,1.73898e-181
717.789,6.99384e-183
718.577,2.77807e-184
719.364,1.08988e-185
720.152,4.22302e-187
720.94,1.61613e-188
721.728,6.1085e-190
722.516,2.28035e-191
723.304,8.40771e-193
724.092,3.06169e-194
724.88,1.10116e-195
725.668,3.91157e-197
726.456,1.37233e-198
727.243,4.75525e-200
728.031,1.62741e-201
728.819,5.50081e-203
729.607,1.83639e-204
730.395,6.05497e-206
731.183,1.97182e-207
731.971,6.34203e-209
732.759,2.01465e-210
733.547,6.32087e-212
734.335,1.95868e-213
735.122,5.99455e-215
735.91,1.812e-216
736.698,5.40963e-218
737.486,1.59509e-219
738.274,4.64527e-221
739.062,1.33612e-222
739.85,3.79564e-224
740.638,1.06496e-225
741.426,2.95115e-227
742.214,8.07711e-229
743.001,2.18338e-230
743.789,5.82921e-232
744.577,1.53709e-233
745.365,4.00308e-235
746.153,1.02967e-236
746.941,2.61584e-238
747.729,6.56343e-240
748.517,1.62652e-241
749.305,3.98103e-243
750.093,9.62363e-245
750.88,2.29768e-246
751.668,5.41814e-248
752.456,1.26188e-249
753.244,2.90264e-251
754.032,6.59441e-253
754.82,1.47968e-254
755.608,3.27919e-256
756.396,7.1775e-258
757.184,1.55163e-259
757.972,3.31292e-261
758.759,6.9862e-263
759.547,1.45506e-264
760.335,2.99313e-266
761.123,6.08108e-268
761.911,1.22023e-269
762.699,2.41831e-271
763.487,4.73359e-273
764.275,9.15116e-275
765.063,1.74731e-276
765.851,3.29512e-278
766.639,6.13736e-280
767.426,1.12901e-281
768.214,2.05128e-283
769.002,3.68093e-285
769.79,6.52376e-287
770.578,1.14195e-288
771.366,1.97426e-290
772.154,3.37108e-292
772.942,5.68514e-294
773.73,9.46939e-296
774.518,1.5578e-297
775.305,2.53109e-299
776.093,4.06173e-301
776.881,6.43759e-303
777.669,1.00773e-304
778.457,1.55801e-306
779.245,2.37907e-308
780.033,3.58798e-310
780.821,5.34444e-312
781.609,7.86252e-314
782.397,1.14243e-315
783.184,1.639473e-317
783.972,2.32374e-319
784.76,3.25e-321
785.548,4.4e-323
786.336,0.0
787.124,0.0
787.912,0.0
788.7,0.0
789.488,0.0
790.276,0.0
791.063,0.0
791.851,0.0
792.639,0.0
793.427,0.0
794.215,0.0
795.003,0.0
795.791,0.0
796.579,0.0
797.367,0.0
798.155,0.0
798.942,0.0
799.73,0.0
800.518,0.0
801.306,0.0
802.094,0.0
802.882,0.0
803.67,0.0
804.458,0.0
805.246,0.0
806.034,0.0
806.822,0.0
807.609,0.0
808.397,0.0
809.185,0.0
809.973,0.0
810.761,0.0
811.549,0.0
812.337,0.0
813.125,0.0
813.913,0.0
814.701,0.0
815.488,0.0
816.276,0.0
817.064,0.0
817.852,0.0
818.64,0.0
819.428,0.0
820.216,0.0
821.004,0.0
821.792,0.0
822.58,0.0
823.367,0.0
824.155,0.0
824.943,0.0
825.731,0.0
826.519,0.0
827.307,0.0
828.095,0.0
828.883,0.0
829.671,0.0
830.459,0.0
831.246,0.0
832.034,0.0
832.822,0.0
833.61,0.0
834.398,0.0
835.186,0.0
835.974,0.0
836.762,0.0
837.55,0.0
838.338,0.0
839.125,0.0
839.913,0.0
840.701,0.0
841.489,0.0
842.277,0.0
843.065,0.0
843.853,0.0
844.641,0.0
845.429,0.0
846.217,0.0
847.005,0.0
847.792,0.0
848.58,0.0
849.368,0.0
850.156,0.0
850.944,0.0
851.732,0.0
852.52,0.0
853.308,0.0
854.096,0.0
854.884,0.0
855.671,0.0
856.459,0.0
857.247,0.0
858.035,0.0
858.823,0.0
859.611,0.0
860.399,0.0
861.187,0.0
861.975,0.0
862.763,0.0
863.55,0.0
864.338,0.0
865.126,0.0
865.914,0.0
866.702,0.0
867.49,0.0
868.278,0.0
869.066,0.0
869.854,0.0
870.642,0.0
871.429,0.0
872.217,0.0
873.005,0.0
873.793,0.0
874.581,0.0
875.369,0.0
876.157,0.0
876.945,0.0
877.733,0.0
878.521,0.0
879.308,0.0
880.096,0.0
880.884,0.0
881.672,0.0
882.46,0.0
883.248,0.0
884.036,0.0
884.824,0.0
885.612,0.0
886.4,0.0
887.188,0.0
887.975,0.0
888.763,0.0
889.551,0.0
890.339,0.0
891.127,0.0
891.915,0.0
892.703,0.0
893.491,0.0
894.279,0.0
895.067,0.0
895.854,0.0
896.642,0.0
897.43,0.0
898.218,0.0
899.006,0.0
899.794,0.0
900.582,0.0
901.37,0.0
902.158,0.0
902.946,0.0
903.733,0.0
904.521,0.0
905.309,0.0
906.097,0.0
906.885,0.0
907.673,0.0
908.461,0.0
909.249,0.0
910.037,0.0
910.825,0.0
911.612,0.0
912.4,0.0
913.188,0.0
913.976,0.0
914.764,0.0
915.552,0.0
916.34,0.0
917.128,0.0
917.916,0.0
918.704,0.0
919.491,0.0
920.279,0.0
921.067,0.0
921.855,0.0
922.643,0.0
923.431,0.0
924.219,0.0
925.007,0.0
925.795,0.0
926.583,0.0
927.37,0.0
928.158,0.0
928.946,0.0
929.734,0.0
930.522,0.0
931.31,0.0
932.098,0.0
932.886,0.0
933.674,0.0
934.462,0.0
935.25,0.0
936.037,0.0
936.825,0.0
937.613,0.0
938.401,0.0
939.189,0.0
939.977,0.0
940.765,0.0
941.553,0.0
942.341,0.0
943.129,0.0
943.916,0.0
944.704,0.0
945.492,0.0
946.28,0.0
947.068,0.0
947.856,0.0
948.644,0.0
949.432,0.0
950.22,0.0
951.008,0.0
951.795,0.0
952.583,0.0
953.371,0.0
954.159,0.0
954.947,0.0
955.735,0.0
956.523,0.0
957.311,0.0
958.099,0.0
958.887,0.0
959.674,0.0
960.462,0.0
961.25,0.0
962.038,0.0
962.826,0.0
963.614,0.0
964.402,0.0
965.19,0.0
965.978,0.0
966.766,0.0
967.553,0.0
968.341,0.0
969.129,0.0
969.917,0.0
970.705,0.0
971.493,0.0
972.281,0.0
973.069,0.0
973.857,0.0
974.645,0.0
975.433,0.0
976.22,0.0
977.008,0.0
977.796,0.0
978.584,0.0
979.372,0.0
980.16,0.0
980.948,0.0
981.736,0.0
982.524,0.0
983.312,0.0
984.099,0.0
984.69,0.0