File: CRYSTAL-IR-RAMAN/TiO2_rutile.log-RAMAN.csv
E(cm-1),I
0.01,6.23569e-58
0.797902,3.57851e-57
1.5858,2.02828e-56
2.37371,1.13543e-55
3.16161,6.27774e-55
3.94951,3.42809e-54
4.73741,1.84888e-53
5.52531,9.84861e-53
6.31321,5.18141e-52
7.10112,2.69233e-51
7.88902,1.38171e-50
8.67692,7.00349e-50
9.46482,3.50606e-49
10.2527,1.73353e-48
11.0406,8.46548e-48
11.8285,4.08301e-47
12.6164,1.94498e-46
13.4043,9.15083e-46
14.1922,4.25219e-45
14.9801,1.95152e-44
15.768,8.84585e-44
16.5559,3.96018e-43
17.3438,1.75105e-42
18.1317,7.64699e-42
18.9196,3.2983e-41
19.7075,1.40507e-40
20.4954,5.91169e-40
21.2834,2.4566e-39
22.0713,1.00824e-38
22.8592,4.087e-38
23.6471,1.63626e-37
24.435,6.47002e-37
25.2229,2.52678e-36
26.0108,9.74627e-36
26.7987,3.71293e-35
27.5866,1.39702e-34
28.3745,5.19155e-34
29.1624,1.90545e-33
29.9503,6.9073e-33
30.7382,2.47301e-32
31.5261,8.74484e-32
32.314,3.05411e-31
33.1019,1.05348e-30
33.8898,3.58902e-30
34.6777,1.20763e-29
35.4656,4.01327e-29
36.2535,1.31726e-28
37.0414,4.27023e-28
37.8293,1.36723e-27
38.6172,4.32352e-27
39.4051,1.35033e-26
40.193,4.16537e-26
40.9809,1.26904e-25
41.7688,3.81858e-25
42.5567,1.13485e-24
43.3446,3.33106e-24
44.1325,9.65682e-24
44.9204,2.76499e-23
45.7083,7.81919e-23
46.4962,2.18392e-22
47.2841,6.02449e-22
48.072,1.64139e-21
48.8599,4.41683e-21
49.6478,1.17386e-20
50.4357,3.08129e-20
51.2236,7.98833e-20
52.0115,2.04544e-19
52.7994,5.1728e-19
53.5873,1.29203e-18
54.3752,3.18733e-18
55.1631,7.76585e-18
55.951,1.86878e-17
56.7389,4.44158e-17
57.5268,1.04261e-16
58.3147,2.41722e-16
59.1026,5.53502e-16
59.8905,1.25178e-15
60.6784,2.79606e-15
61.4663,6.16839e-15
62.2542,1.34402e-14
63.0421,2.89232e-14
63.8301,6.14745e-14
64.618,1.29048e-13
65.4059,2.67558e-13
66.1938,5.47886e-13
66.9817,1.10808e-12
67.7696,2.2134e-12
68.5575,4.36673e-12
69.3454,8.50864e-12
70.1333,1.63747e-11
70.9212,3.11238e-11
71.7091,5.8428e-11
72.497,1.08332e-10
73.2849,1.98381e-10
74.0728,3.588e-10
74.8607,6.40932e-10
75.6486,1.13078e-09
76.4365,1.9704e-09
77.2244,3.39108e-09
78.0123,5.76408e-09
78.8002,9.67673e-09
79.5881,1.60449e-08
80.376,2.62755e-08
81.1639,4.24985e-08
81.9518,6.78897e-08
82.7397,1.07113e-07
83.5276,1.66913e-07
84.3155,2.56888e-07
85.1034,3.90486e-07
85.8913,5.8624e-07
86.6792,8.69268e-07
87.4671,1.27303e-06
88.255,1.84134e-06
89.0429,2.63048e-06
89.8308,3.71146e-06
90.6187,5.17205e-06
91.4066,7.11849e-06
92.1945,9.67656e-06
92.9824,1.29916e-05
93.7703,1.72271e-05
94.5582,2.25615e-05
95.3461,2.91832e-05
96.134,3.72826e-05
96.9219,4.70421e-05
97.7098,5.86239e-05
98.4977,7.21558e-05
99.2856,8.77153e-05
100.074,0.000105314
100.861,0.000124884
101.649,0.000146263
102.437,0.000169189
103.225,0.000193293
104.013,0.000218106
104.801,0.000243067
105.589,0.000267543
106.377,0.00029085
107.165,0.000312286
107.953,0.000331164
108.74,0.000346851
109.528,0.000358798
110.316,0.000366576
111.104,0.000369902
111.892,0.000368653
112.68,0.000362874
113.468,0.000352779
114.256,0.000338732
115.044,0.000321232
115.832,0.000300877
116.619,0.000278334
117.407,0.000254304
118.195,0.000229481
118.983,0.000204526
119.771,0.000180035
120.559,0.000156522
121.347,0.0001344
122.135,0.000113981
122.923,9.54716e-05
123.711,7.89811e-05
124.498,6.45328e-05
125.286,5.20769e-05
126.074,4.15066e-05
126.862,3.26737e-05
127.65,2.54031e-05
128.438,1.95067e-05
129.226,1.4794e-05
130.014,1.10815e-05
130.802,8.19821e-06
131.59,5.99028e-06
132.378,4.32298e-06
133.165,3.08125e-06
133.953,2.16909e-06
134.741,1.50813e-06
135.529,1.03563e-06
136.317,7.02393e-07
137.105,4.70504e-07
137.893,3.11282e-07
138.681,2.03401e-07
139.469,1.31268e-07
140.257,8.36709e-08
141.044,5.26741e-08
141.832,3.27512e-08
142.62,2.01125e-08
143.408,1.21987e-08
144.196,7.30746e-09
144.984,4.32343e-09
145.772,2.52638e-09
146.56,1.45806e-09
147.348,8.31117e-10
148.136,4.67903e-10
148.923,2.6017e-10
149.711,1.42878e-10
150.499,7.74968e-11
151.287,4.15154e-11
152.075,2.19655e-11
152.863,1.14784e-11
153.651,5.92423e-12
154.439,3.01987e-12
155.227,1.52038e-12
156.015,7.56007e-13
156.802,3.71284e-13
157.59,1.80092e-13
158.378,8.62762e-14
159.166,4.08221e-14
159.954,1.90769e-14
160.742,8.80495e-15
161.53,4.01379e-15
162.318,1.80713e-15
163.106,8.03589e-16
163.894,3.52927e-16
164.681,1.53089e-16
165.469,6.55861e-17
166.257,2.77515e-17
167.045,1.15976e-17
167.833,4.78697e-18
168.621,1.95146e-18
169.409,7.85717e-19
170.197,3.1245e-19
170.985,1.22717e-19
171.773,4.7603e-20
172.561,1.82378e-20
173.348,6.9011e-21
174.136,2.57912e-21
174.924,9.51994e-22
175.712,3.4706e-22
176.5,1.24963e-22
177.288,4.44393e-23
178.076,1.56085e-23
178.864,5.41455e-24
179.652,1.85512e-24
180.44,6.27753e-25
181.227,2.09804e-25
182.015,6.92543e-26
182.803,2.25781e-26
183.591,7.27004e-27
184.379,2.31203e-27
185.167,7.26203e-28
185.955,2.25284e-28
186.743,6.90257e-29
187.531,2.08881e-29
188.319,6.24302e-30
189.106,1.84289e-30
189.894,5.37293e-31
190.682,1.54714e-31
191.47,4.40006e-32
192.258,1.23593e-32
193.046,3.42876e-33
193.834,9.39483e-34
194.622,2.54242e-34
195.41,6.7954e-35
196.198,1.79387e-35
196.985,4.67706e-36
197.773,1.20438e-36
198.561,3.06311e-37
199.349,7.6943e-38
200.137,1.9089e-38
200.925,4.67742e-39
201.713,1.13197e-39
202.501,2.70567e-40
203.289,6.38735e-41
204.077,1.48927e-41
204.864,3.42954e-42
205.652,7.80021e-43
206.44,1.7522e-43
207.228,3.88749e-44
208.016,8.51849e-45
208.804,1.84359e-45
209.592,3.9407e-46
210.38,8.31937e-47
211.168,1.73466e-47
211.956,3.5723e-48
212.744,7.26589e-49
213.531,1.45961e-49
214.319,2.89597e-50
215.107,5.67491e-51
215.895,1.09833e-51
216.683,2.09948e-52
217.471,3.96369e-53
218.259,7.39087e-54
219.047,1.36113e-54
219.835,2.47578e-55
220.623,4.44765e-56
221.41,7.89148e-57
222.198,1.38291e-57
222.986,2.39352e-58
223.774,4.09156e-59
224.562,6.90793e-60
225.35,1.1519e-60
226.138,1.8971e-61
226.926,3.08583e-62
227.714,4.95751e-63
228.502,7.86614e-64
229.289,1.23273e-64
230.077,1.90802e-65
230.865,2.91679e-66
231.653,4.40388e-67
232.441,6.5671e-68
233.229,9.67207e-69
234.017,1.40693e-69
234.805,2.02132e-70
235.593,2.86817e-71
236.381,4.01959e-72
237.168,5.56375e-73
237.956,7.60608e-74
238.744,1.02698e-74
239.532,1.36953e-75
240.32,1.8038e-76
241.108,2.34646e-77
241.896,3.01471e-78
242.684,3.82549e-79
243.472,4.79441e-80
244.26,5.9346e-81
245.047,7.25531e-82
245.835,8.76049e-83
246.623,1.04474e-83
247.411,1.23054e-84
248.199,1.4315e-85
248.987,1.64474e-86
249.775,1.86641e-87
250.563,2.09184e-88
251.351,2.31555e-89
252.139,2.53157e-90
252.926,2.73359e-91
253.714,2.91531e-92
254.502,3.07075e-93
255.29,3.19456e-94
256.078,3.28236e-95
256.866,3.33095e-96
257.654,3.33856e-97
258.442,3.30489e-98
259.23,3.2312e-99
260.018,3.12017e-100
260.806,2.97578e-101
261.593,2.80305e-102
262.381,2.60777e-103
263.169,2.39615e-104
263.957,2.17454e-105
264.745,1.94908e-106
265.533,1.72544e-107
266.321,1.50861e-108
267.109,1.30275e-109
267.897,1.11111e-110
268.685,9.35958e-112
269.472,7.78692e-113
270.26,6.39856e-114
271.048,5.19287e-115
271.836,4.16236e-116
272.624,3.29519e-117
273.412,2.57649e-118
274.2,1.98969e-119
274.988,1.51757e-120
275.776,1.1432e-121
276.564,8.50554e-123
277.351,6.25014e-124
278.139,4.53613e-125
278.927,3.25154e-126
279.715,2.30198e-127
280.503,1.60961e-128
281.291,1.11161e-129
282.079,7.6005e-131
282.867,7.98508e-132
283.655,4.45098e-131
284.443,6.69702e-130
285.23,1.0028e-128
286.018,1.4831e-127
286.806,2.16638e-126
287.594,3.1254e-125
288.382,4.45334e-124
289.17,6.26719e-123
289.958,8.711e-122
290.746,1.19584e-120
291.534,1.62137e-119
292.322,2.17121e-118
293.109,2.87163e-117
293.897,3.75114e-116
294.685,4.83955e-115
295.473,6.16674e-114
296.261,7.76094e-113
297.049,9.64674e-112
297.837,1.18428e-110
298.625,1.43594e-109
299.413,1.7196e-108
300.201,2.03388e-107
300.989,2.37591e-106
301.776,2.74122e-105
302.564,3.12367e-104
303.352,3.51556e-103
304.14,3.9078e-102
304.928,4.2902e-101
305.716,4.6519e-100
306.504,4.98186e-99
307.292,5.26939e-98
308.08,5.50474e-97
308.868,5.67965e-96
309.655,5.78781e-95
310.443,5.82525e-94
311.231,5.79059e-93
312.019,5.68511e-92
312.807,5.51268e-91
313.595,5.27953e-90
314.383,4.99384e-89
315.171,4.66534e-88
315.959,4.30466e-87
316.747,3.92285e-86
317.534,3.5308e-85
318.322,3.13872e-84
319.11,2.75575e-83
319.898,2.38966e-82
320.686,2.04663e-81
321.474,1.73121e-80
322.262,1.44633e-79
323.05,1.19342e-78
323.838,9.72589e-78
324.626,7.82838e-77
325.413,6.22332e-76
326.201,4.8863e-75
326.989,3.78919e-74
327.777,2.90216e-73
328.565,2.19534e-72
329.353,1.64018e-71
330.141,1.21029e-70
330.929,8.82055e-70
331.717,6.34906e-69
332.505,4.51368e-68
333.292,3.16928e-67
334.08,2.19785e-66
334.868,1.50537e-65
335.656,1.01835e-64
336.444,6.80387e-64
337.232,4.48978e-63
338.02,2.92618e-62
338.808,1.88359e-61
339.596,1.19751e-60
340.384,7.51933e-60
341.172,4.66323e-59
341.959,2.8563e-58
342.747,1.72794e-57
343.535,1.03243e-56
344.323,6.09255e-56
345.111,3.55097e-55
345.899,2.0441e-54
346.687,1.16216e-53
347.475,6.52585e-53
348.263,3.61923e-52
349.051,1.98246e-51
349.838,1.0725e-50
350.626,5.73062e-50
351.414,3.02421e-49
352.202,1.57627e-48
352.99,8.11443e-48
353.778,4.12565e-47
354.566,2.07174e-46
355.354,1.02751e-45
356.142,5.03319e-45
356.93,2.43506e-44
357.717,1.16354e-43
358.505,5.49117e-43
359.293,2.5595e-42
360.081,1.17829e-41
360.869,5.35745e-41
361.657,2.40587e-40
362.445,1.06707e-39
363.233,4.67436e-39
364.021,2.02236e-38
364.809,8.6418e-38
365.596,3.64718e-37
366.384,1.52026e-36
367.172,6.25873e-36
367.96,2.54485e-35
368.748,1.02199e-34
369.536,4.05359e-34
370.324,1.58796e-33
371.112,6.14396e-33
371.9,2.34782e-32
372.688,8.86111e-32
373.475,3.30309e-31
374.263,1.21607e-30
375.051,4.42188e-30
375.839,1.58804e-29
376.627,5.63282e-29
377.415,1.97332e-28
378.203,6.82773e-28
378.991,2.33326e-27
379.779,7.87514e-27
380.567,2.62519e-26
381.355,8.64315e-26
382.142,2.81055e-25
382.93,9.02645e-25
383.718,2.8632e-24
384.506,8.97003e-24
385.294,2.77552e-23
386.082,8.48207e-23
386.87,2.56017e-22
387.658,7.63206e-22
388.446,2.24711e-21
389.234,6.53451e-21
390.021,1.87677e-20
390.809,5.32373e-20
391.597,1.49152e-19
392.385,4.12716e-19
393.173,1.12792e-18
393.961,3.04451e-18
394.749,8.11637e-18
395.537,2.13705e-17
396.325,5.55745e-17
397.113,1.42739e-16
397.9,3.62093e-16
398.688,9.07203e-16
399.476,2.2449e-15
400.264,5.48652e-15
401.052,1.32436e-14
401.84,3.15734e-14
402.628,7.43438e-14
403.416,1.72893e-13
404.204,3.97115e-13
404.992,9.00873e-13
405.779,2.01845e-12
406.567,4.46665e-12
407.355,9.76233e-12
408.143,2.10733e-11
408.931,4.49283e-11
409.719,9.46051e-11
410.507,1.96751e-10
411.295,4.04136e-10
412.083,8.19872e-10
412.871,1.64275e-09
413.658,3.25093e-09
414.446,6.35403e-09
415.234,1.22659e-08
416.022,2.33861e-08
416.81,4.40375e-08
417.598,8.19025e-08
418.386,1.50445e-07
419.174,2.72941e-07
419.962,4.89064e-07
420.75,8.65508e-07
421.537,1.51281e-06
422.325,2.61159e-06
423.113,4.45281e-06
423.901,7.49844e-06
424.689,1.24714e-05
425.477,2.04865e-05
426.265,3.32376e-05
427.053,5.32596e-05
427.841,8.42896e-05
428.629,0.000131752
429.417,0.0002034
430.204,0.000310135
430.992,0.000467045
431.78,0.000694663
432.568,0.00102046
433.356,0.00148057
434.144,0.00212163
434.932,0.00300273
435.72,0.00419732
436.508,0.00579475
437.296,0.00790144
438.083,0.0106411
438.871,0.0141538
439.659,0.0185937
440.447,0.0241251
441.235,0.0309158
442.023,0.039129
442.811,0.048913
443.599,0.0603891
444.387,0.0736378
445.175,0.0886852
445.962,0.105489
446.75,0.123929
447.538,0.143796
448.326,0.16479
449.114,0.186517
449.902,0.208505
450.69,0.230209
451.478,0.251035
452.266,0.270368
453.054,0.287597
453.841,0.302149
454.629,0.313521
455.417,0.321306
456.205,0.325222
456.993,0.325123
457.781,0.321014
458.569,0.313046
459.357,0.301509
460.145,0.286814
460.933,0.269469
461.72,0.250048
462.508,0.229165
463.296,0.207434
464.084,0.185446
464.872,0.163744
465.66,0.142798
466.448,0.122994
467.236,0.10463
468.024,0.0879091
468.812,0.0729492
469.6,0.0597882
470.387,0.0483969
471.175,0.0386926
471.963,0.0305525
472.751,0.0238272
473.539,0.018353
474.327,0.013962
475.115,0.0104906
475.903,0.00778496
476.691,0.00570588
477.479,0.00413044
478.266,0.00295309
479.054,0.00208529
479.842,0.00145433
480.63,0.00100177
481.418,0.000681526
482.206,0.000457934
482.994,0.000303901
483.782,0.000199191
484.57,0.000128948
485.358,8.24453e-05
486.145,5.20626e-05
486.933,3.24709e-05
487.721,2.00019e-05
488.509,1.2169e-05
489.297,7.31218e-06
490.085,4.33957e-06
490.873,2.54363e-06
491.661,1.47255e-06
492.449,8.41964e-07
493.237,4.75472e-07
494.024,2.65194e-07
494.812,1.46087e-07
495.6,7.94816e-08
496.388,4.271e-08
497.176,2.26673e-08
497.964,1.18817e-08
498.752,6.15128e-09
499.54,3.14529e-09
500.328,1.58841e-09
501.116,7.9227e-10
501.903,3.90293e-10
502.691,1.89897e-10
503.479,9.12539e-11
504.267,4.33105e-11
505.055,2.03022e-11
505.843,9.39941e-12
506.631,4.298e-12
507.419,1.94106e-12
508.207,8.65807e-13
508.995,3.81426e-13
509.783,1.65962e-13
510.57,7.13202e-14
511.358,3.02709e-14
512.146,1.26896e-14
512.934,5.25382e-15
513.722,2.14838e-15
514.51,8.67673e-16
515.298,3.46106e-16
516.086,1.36354e-16
516.874,5.30563e-17
517.662,2.03898e-17
518.449,7.73922e-18
519.237,2.90128e-18
520.025,1.07421e-18
520.813,3.92823e-19
521.601,1.41877e-19
522.389,5.06099e-20
523.177,1.78307e-20
523.965,6.20466e-21
524.753,2.13288e-21
525.541,7.25584e-22
526.328,2.48385e-22
527.116,9.84087e-23
527.904,8.24343e-23
528.692,1.80906e-22
529.48,5.25527e-22
530.268,1.56661e-21
531.056,4.63158e-21
531.844,1.35299e-20
532.632,3.9038e-20
533.42,1.11248e-19
534.207,3.13114e-19
534.995,8.70405e-19
535.783,2.38973e-18
536.571,6.48013e-18
537.359,1.73551e-17
538.147,4.59069e-17
538.935,1.19932e-16
539.723,3.09459e-16
540.511,7.88638e-16
541.299,1.985e-15
542.086,4.93458e-15
542.874,1.21157e-14
543.662,2.93802e-14
544.45,7.0367e-14
545.238,1.66453e-13
546.026,3.88884e-13
546.814,8.97342e-13
547.602,2.04505e-12
548.39,4.60317e-12
549.178,1.02334e-11
549.966,2.24692e-11
550.753,4.87265e-11
551.541,1.04364e-10
552.329,2.20771e-10
553.117,4.61258e-10
553.905,9.51815e-10
554.693,1.93985e-09
555.481,3.90475e-09
556.269,7.76293e-09
557.057,1.52428e-08
557.845,2.95607e-08
558.632,5.66201e-08
559.42,1.07111e-07
560.208,2.00127e-07
560.996,3.69306e-07
561.784,6.73091e-07
562.572,1.21163e-06
563.36,2.15413e-06
564.148,3.78254e-06
564.936,6.55999e-06
565.724,1.12365e-05
566.511,1.90093e-05
567.299,3.1762e-05
568.087,5.24154e-05
568.875,8.54314e-05
569.663,0.000137526
570.451,0.000218654
571.239,0.000343353
572.027,0.000532514
572.815,0.000815697
573.603,0.00123406
574.39,0.00184395
575.178,0.00272126
575.966,0.00396644
576.754,0.00571003
577.542,0.00811865
578.33,0.0114008
579.118,0.0158124
579.906,0.0216604
580.694,0.0293052
581.482,0.0391588
582.269,0.05168
583.057,0.0673632
583.845,0.0867224
584.633,0.110268
585.421,0.138475
586.209,0.171753
586.997,0.2104
587.785,0.254562
588.573,0.304193
589.361,0.359015
590.148,0.418489
590.936,0.481797
591.724,0.547837
592.512,0.615244
593.3,0.682418
594.088,0.747587
594.876,0.808874
595.664,0.864386
596.452,0.91231
597.24,0.951011
598.028,0.97912
598.815,0.995622
599.603,0.99991
600.391,0.991826
601.179,0.971668
601.967,0.940173
602.755,0.898475
603.543,0.848031
604.331,0.790543
605.119,0.727859
605.907,0.661876
606.694,0.594449
607.482,0.527302
608.27,0.461969
609.058,0.399737
609.846,0.34162
610.634,0.28835
611.422,0.240384
612.21,0.197924
612.998,0.160953
613.786,0.129273
614.573,0.102547
615.361,0.0803429
616.149,0.0621698
616.937,0.0475138
617.725,0.0358648
618.513,0.0267377
619.301,0.0196874
620.089,0.0143172
620.877,0.0102834
621.665,0.00729501
622.452,0.00511118
623.24,0.00353692
624.028,0.00241733
624.816,0.00163175
625.604,0.00108788
626.392,0.000716336
627.18,0.000465864
627.968,0.000299233
628.756,0.000189831
629.544,0.000118942
630.331,7.36053e-05
631.119,4.49874e-05
631.907,2.7157e-05
632.695,1.61912e-05
633.483,9.53421e-06
634.271,5.54496e-06
635.059,3.18508e-06
635.847,1.80696e-06
636.635,1.01248e-06
637.423,5.60315e-07
638.211,3.06257e-07
638.998,1.65328e-07
639.786,8.81486e-08
640.574,4.64186e-08
641.362,2.41422e-08
642.15,1.24014e-08
642.938,6.29173e-09
643.726,3.15267e-09
644.514,1.56025e-09
645.302,7.62639e-10
646.09,3.68172e-10
646.877,1.75546e-10
647.665,8.26683e-11
648.453,3.84499e-11
649.241,1.76628e-11
650.029,8.01364e-12
650.817,3.59095e-12
651.605,1.58927e-12
652.393,6.94692e-13
653.181,2.99913e-13
653.969,1.27881e-13
654.756,5.38549e-14
655.544,2.24002e-14
656.332,9.20209e-15
657.12,3.73361e-15
657.908,1.49617e-15
658.696,5.92159e-16
659.484,2.31475e-16
660.272,8.93673e-17
661.06,3.40769e-17
661.848,1.28337e-17
662.635,4.77363e-18
663.423,1.75369e-18
664.211,6.36308e-19
664.999,2.28029e-19
665.787,8.07084e-20
666.575,2.82134e-20
667.363,9.74094e-21
668.151,3.32165e-21
668.939,1.1187e-21
669.727,3.72121e-22
670.514,1.22253e-22
671.302,3.96685e-23
672.09,1.27127e-23
672.878,4.02382e-24
673.666,1.2579e-24
674.454,3.88385e-25
675.242,1.18437e-25
676.03,3.56713e-26
676.818,1.06111e-26
677.606,3.1175e-27
678.394,9.04612e-28
679.181,2.59254e-28
679.969,7.33833e-29
680.757,2.05152e-29
681.545,5.66453e-30
682.333,1.54475e-30
683.121,4.16066e-31
683.909,1.10681e-31
684.697,2.90798e-32
685.485,7.54603e-33
686.273,1.93399e-33
687.06,4.89548e-34
687.848,1.2239e-34
688.636,3.02207e-35
689.424,7.37005e-36
690.212,1.77519e-36
691,4.22305e-37
691.788,9.92239e-38
692.576,2.30258e-38
693.364,5.2774e-39
694.152,1.19463e-39
694.939,2.67088e-40
695.727,5.89772e-41
696.515,1.28624e-41
697.303,2.77055e-42
698.091,5.89412e-43
698.879,1.23845e-43
699.667,2.57009e-44
700.455,5.26775e-45
701.243,1.06638e-45
702.031,2.13207e-46
702.818,4.2102e-47
703.606,8.21128e-48
704.394,1.58171e-48
705.182,3.0092e-49
705.97,5.65435e-50
706.758,1.04936e-50
707.546,1.9234e-51
708.334,3.48198e-52
709.122,6.22572e-53
709.91,1.09942e-53
710.697,1.91789e-54
711.485,3.32386e-55
712.273,6.76853e-56
713.061,7.23496e-56
713.849,3.41807e-55
714.637,1.81779e-54
715.425,9.58939e-54
716.213,4.99693e-53
717.001,2.57173e-52
717.789,1.30724e-51
718.577,6.56287e-51
719.364,3.25416e-50
720.152,1.59365e-49
720.94,7.70823e-49
721.728,3.68234e-48
722.516,1.73741e-47
723.304,8.09631e-47
724.092,3.72632e-46
724.88,1.69387e-45
725.668,7.60484e-45
726.456,3.37215e-44
727.243,1.47683e-43
728.031,6.38799e-43
728.819,2.72901e-42
729.607,1.15147e-41
730.395,4.79855e-41
731.183,1.97503e-40
731.971,8.02872e-40
732.759,3.22349e-39
733.547,1.27824e-38
734.335,5.00622e-38
735.122,1.93648e-37
735.91,7.39818e-37
736.698,2.79154e-36
737.486,1.04033e-35
738.274,3.82919e-35
739.062,1.39204e-34
739.85,4.99806e-34
740.638,1.77239e-33
741.426,6.20765e-33
742.214,2.14734e-32
743.001,7.33642e-32
743.789,2.47557e-31
744.577,8.25037e-31
745.365,2.71569e-30
746.153,8.82864e-30
746.941,2.83476e-29
747.729,8.98971e-29
748.517,2.81568e-28
749.305,8.71022e-28
750.093,2.66123e-27
750.88,8.03053e-27
751.668,2.39339e-26
752.456,7.04516e-26
753.244,2.04822e-25
754.032,5.88125e-25
754.82,1.6679e-24
755.608,4.67175e-24
756.396,1.2924e-23
757.184,3.53119e-23
757.972,9.52913e-23
758.759,2.53977e-22
759.547,6.68562e-22
760.335,1.73819e-21
761.123,4.46336e-21
761.911,1.13197e-20
762.699,2.8354e-20
763.487,7.01459e-20
764.275,1.71395e-19
765.063,4.1362e-19
765.851,9.85854e-19
766.639,2.32077e-18
767.426,5.39584e-18
768.214,1.23907e-17
769.002,2.8102e-17
769.79,6.29489e-17
770.578,1.39267e-16
771.366,3.04308e-16
772.154,6.56733e-16
772.942,1.39982e-15
773.73,2.94687e-15
774.518,6.12717e-15
775.305,1.25825e-14
776.093,2.552e-14
776.881,5.11213e-14
777.669,1.01142e-13
778.457,1.97638e-13
779.245,3.8143e-13
780.033,7.27057e-13
780.821,1.36877e-12
781.609,2.54507e-12
782.397,4.67387e-12
783.184,8.47738e-12
783.972,1.51864e-11
784.76,2.68693e-11
785.548,4.69531e-11
786.336,8.10366e-11
787.124,1.38136e-10
787.912,2.32562e-10
788.7,3.86704e-10
789.488,6.35077e-10
790.276,1.03011e-09
791.063,1.65024e-09
791.851,2.61107e-09
792.639,4.08036e-09
793.427,6.29776e-09
794.215,9.60023e-09
795.003,1.44539e-08
795.791,2.1493e-08
796.579,3.15657e-08
797.367,4.57871e-08
798.155,6.55961e-08
798.942,9.28156e-08
799.73,1.2971e-07
800.518,1.79032e-07
801.306,2.4406e-07
802.094,3.28603e-07
802.882,4.36973e-07
803.67,5.73911e-07
804.458,7.44462e-07
805.246,9.53781e-07
806.034,1.20688e-06
806.822,1.50829e-06
807.609,1.86172e-06
808.397,2.26961e-06
809.185,2.73274e-06
809.973,3.24976e-06
810.761,3.81691e-06
811.549,4.42773e-06
812.337,5.07293e-06
813.125,5.74042e-06
813.913,6.41559e-06
814.701,7.0817e-06
815.488,7.72051e-06
816.276,8.31309e-06
817.064,8.84071e-06
817.852,9.2858e-06
818.64,9.63296e-06
819.428,9.86979e-06
820.216,9.98766e-06
821.004,9.98223e-06
821.792,9.8537e-06
822.58,9.60681e-06
823.367,9.25053e-06
824.155,8.79756e-06
824.943,8.26353e-06
825.731,7.66614e-06
826.519,7.02419e-06
827.307,6.35658e-06
828.095,5.68144e-06
828.883,5.01535e-06
829.671,4.37272e-06
830.459,3.76539e-06
831.246,3.20241e-06
832.034,2.68999e-06
832.822,2.23169e-06
833.61,1.82862e-06
834.398,1.47986e-06
835.186,1.18285e-06
835.974,9.33774e-07
836.762,7.28054e-07
837.55,5.60652e-07
838.338,4.26413e-07
839.125,3.20314e-07
839.913,2.37645e-07
840.701,1.74137e-07
841.489,1.26026e-07
842.277,9.00818e-08
843.065,6.35948e-08
843.853,4.43419e-08
844.641,3.05362e-08
845.429,2.07694e-08
846.217,1.39521e-08
847.005,9.25688e-09
847.792,6.06592e-09
848.58,3.92588e-09
849.368,2.50949e-09
850.156,1.58431e-09
850.944,9.87882e-10
851.732,6.08382e-10
852.52,3.70046e-10
853.308,2.22302e-10
854.096,1.31898e-10
854.884,7.72934e-11
855.671,4.47356e-11
856.459,2.55725e-11
857.247,1.44378e-11
858.035,8.05072e-12
858.823,4.43381e-12
859.611,2.41173e-12
860.399,1.29565e-12
861.187,6.87468e-13
861.975,3.60269e-13
862.763,1.8647e-13
863.55,9.53234e-14
864.338,4.8128e-14
865.126,2.39996e-14
865.914,1.182e-14
866.702,5.74961e-15
867.49,2.76228e-15
868.278,1.31071e-15
869.066,6.14258e-16
869.854,2.84318e-16
870.642,1.29977e-16
871.429,5.8686e-17
872.217,2.61705e-17
873.005,1.15265e-17
873.793,5.01405e-18
874.581,2.15422e-18
875.369,9.14109e-19
876.157,3.83102e-19
876.945,1.58576e-19
877.733,6.48292e-20
878.521,2.61765e-20
879.308,1.0439e-20
880.096,4.11164e-21
880.884,1.59948e-21
881.672,6.1454e-22
882.46,2.33201e-22
883.248,8.74011e-23
884.036,3.23528e-23
884.824,1.18281e-23
885.612,4.27097e-24
886.4,1.52316e-24
887.188,5.36503e-25
887.975,1.86641e-25
888.763,6.41283e-26
889.551,2.17621e-26
890.339,7.29388e-27
891.127,2.41449e-27
891.915,7.89404e-28
892.703,2.54907e-28
893.491,8.12964e-29
894.279,2.56076e-29
895.067,7.96664e-30
895.854,2.44787e-30
896.642,7.42866e-31
897.43,2.22659e-31
898.218,6.59139e-32
899.006,1.92718e-32
899.794,5.56513e-33
900.582,1.58722e-33
901.37,4.47101e-34
902.158,1.24389e-34
902.946,3.41796e-35
903.733,9.27598e-36
904.521,2.48634e-36
905.309,6.58216e-37
906.097,1.72102e-37
906.885,4.44436e-38
907.673,1.13355e-38
908.461,2.85549e-39
909.249,7.10442e-40
910.037,1.74576e-40
910.825,4.2369e-41
911.612,1.01559e-41
912.4,2.40436e-42
913.188,5.62194e-43
913.976,1.29832e-43
914.764,2.96132e-44
915.552,6.67107e-45
916.34,1.48428e-45
917.128,3.26168e-46
917.916,7.07907e-47
918.704,1.51746e-47
919.491,3.21269e-48
920.279,6.7178e-49
921.067,1.38737e-49
921.855,2.82988e-50
922.643,5.70098e-51
923.431,1.13433e-51
924.219,2.22914e-52
925.007,4.32656e-53
925.795,8.29386e-54
926.583,1.57028e-54
927.37,2.93635e-55
928.158,5.42306e-56
928.946,9.89213e-57
929.734,1.78214e-57
930.522,3.17106e-58
931.31,5.57279e-59
932.098,9.67274e-60
932.886,1.65819e-60
933.674,2.80754e-61
934.462,4.69491e-62
935.25,7.75417e-63
936.037,1.26489e-63
936.825,2.03787e-64
937.613,3.24271e-65
938.401,5.09621e-66
939.189,7.91034e-67
939.977,1.21269e-67
940.765,1.83618e-68
941.553,2.74591e-69
942.341,4.05569e-70
943.129,5.91633e-71
943.916,8.52408e-72
944.704,1.21297e-72
945.492,1.70475e-73
946.28,2.36636e-74
947.068,3.24419e-75
947.856,4.3928e-76
948.644,5.87467e-77
949.432,7.7595e-78
950.22,1.01226e-78
951.008,1.30424e-79
951.795,1.65971e-80
952.583,2.086e-81
953.371,2.58943e-82
954.159,3.17469e-83
954.947,3.84421e-84
955.735,4.59749e-85
956.523,5.43053e-86
957.311,6.33536e-87
958.099,7.29976e-88
958.887,8.30718e-89
959.674,9.33699e-90
960.462,1.0365e-90
961.25,1.13641e-91
962.038,1.23059e-92
962.826,1.31613e-93
963.614,1.39024e-94
964.402,1.45041e-95
965.19,1.49451e-96
965.978,1.52095e-97
966.766,1.52876e-98
967.553,1.51765e-99
968.341,1.48802e-100
969.129,1.44098e-101
969.917,1.3782e-102
970.705,1.3019e-103
971.493,1.21464e-104
972.281,1.11925e-105
973.069,1.01862e-106
973.857,9.15607e-108
974.645,8.12853e-109
975.433,7.12727e-110
976.22,6.17222e-111
977.008,5.2792e-112
977.796,4.45967e-113
978.584,3.72088e-114
979.372,3.06616e-115
980.16,2.49548e-116
980.948,2.00595e-117
981.736,1.59255e-118
982.524,1.24875e-119
983.312,9.67086e-121
984.099,7.39712e-122
984.69,1.06714e-122